,0x6f61,0x6f61,0x6f61,0x6f61,0x6f61,0x6f61,0x6f61,0x6f61,0x6f61,0x6f61,0x6f61,0x6f61,0x6f61,0x6f61,0x6f61,0x6f61,
Timestamp (ns),Accel_x (mg), Accel_y (mg), Accel_z (mg),Gyro_x (deg/s), Gyro_y (deg/s), Gyro_z (deg/s),Mag_x (uT), Mag_y (uT), Mag_z (uT),Quat_w, Quat_x, Quat_y, Quat_z,Pressure (Pa),Range to 0x6a25 (mm),RSS to 0x6a25 (dB),
1594838228335966788,23.0,-70.0,960.0,-0.1875,-0.0625,-0.1875,11.25,-4.6875,-38.0625,0.9994015381030621,-0.030029654131348883,-0.017090047066621313,-0.001647968824281341,101655.25,131072,0,
1594838228363118033,23.0,-69.0,965.0,0.125,0.0,-0.0625,10.875,-5.375,-38.0625,0.9994015381030621,-0.030029654131348883,-0.017090047066621313,-0.001647968824281341,101655.25,131072,0,
1594838228394481401,23.0,-70.0,960.0,0.0625,0.0,0.0,11.25,-5.0625,-39.6875,0.9994015381030621,-0.030029654131348883,-0.017090047066621313,-0.001647968824281341,101655.25,131072,0,
1594838228426925231,21.0,-72.0,961.0,0.1875,0.125,0.0,11.25,-5.0625,-39.6875,0.9994015381030621,-0.030029654131348883,-0.017090047066621313,-0.001647968824281341,101655.25,131072,0,
1594838228459066034,24.0,-69.0,963.0,0.0,0.25,0.0,10.5625,-3.5625,-38.5,0.9994015381030621,-0.030029654131348883,-0.017090047066621313,-0.001647968824281341,101655.25,131072,0,
1594838228494532798,22.0,-69.0,960.0,0.25,-0.0625,0.0,11.5625,-5.0625,-38.5,0.9994015381030621,-0.030029654131348883,-0.017090047066621313,-0.001647968824281341,101655.25,131072,0,
1594838228526487355,24.0,-68.0,959.0,0.1875,0.0,-0.0625,11.5625,-5.0625,-38.5,0.9994015381030621,-0.030029654131348883,-0.017090047066621313,-0.001647968824281341,101655.25,131072,0,
1594838228565954365,22.0,-70.0,960.0,0.0625,-0.0625,-0.0625,11.25,-4.6875,-38.5,0.9994015381030621,-0.030029654131348883,-0.017090047066621313,-0.001647968824281341,101655.25,131072,0,
1594838228600520689,26.0,-69.0,963.0,-0.0625,-0.125,-0.0625,10.5625,-5.0625,-38.5,0.9994015381030621,-0.030029654131348883,-0.017090047066621313,-0.001647968824281341,101655.25,131072,0,
1594838228635441730,24.0,-70.0,959.0,-0.0625,-0.0625,-0.0625,10.5625,-5.0625,-38.5,0.9994015381030621,-0.030029654131348883,-0.017090047066621313,-0.001647968824281341,101651.5,131072,0,
1594838228671309508,22.0,-69.0,963.0,0.0,0.0,-0.0625,11.25,-4.6875,-38.0625,0.9994015381030621,-0.030029654131348883,-0.017090047066621313,-0.001647968824281341,101651.5,131072,0,
1594838228706582771,22.0,-71.0,960.0,0.0,-0.0625,0.0,10.875,-5.0625,-38.375,0.9994015381030621,-0.030029654131348883,-0.017090047066621313,-0.001647968824281341,101651.5,131072,0,
1594838228742561229,23.0,-71.0,959.0,0.0,-0.1875,-0.0625,11.25,-5.0625,-38.0625,0.9994015381030621,-0.030029654131348883,-0.017090047066621313,-0.001647968824281341,101651.5,131072,0,
1594838228777273320,24.0,-69.0,962.0,0.0625,0.1875,-0.0625,11.25,-5.0625,-38.0625,0.9994015381030621,-0.030029654131348883,-0.017090047066621313,-0.001647968824281341,101651.5,131072,0,
1594838228810549259,24.0,-68.0,961.0,0.0,-0.125,-0.125,10.5625,-5.375,-38.875,0.9994015381030621,-0.030029654131348883,-0.017090047066621313,-0.001647968824281341,101651.5,131072,0,
1594838228838840139,25.0,-70.0,959.0,0.125,-0.0625,0.0,10.5625,-5.375,-38.875,0.9994015381030621,-0.030029654131348883,-0.017090047066621313,-0.001647968824281341,101651.5,131072,0,
1594838228871115116,22.0,-69.0,961.0,-0.125,0.0625,-0.0625,10.5625,-4.6875,-36.875,0.9994015381030621,-0.030029654131348883,-0.017090047066621313,-0.001647968824281341,101651.5,131072,0,
1594838228902338098,24.0,-71.0,963.0,-0.125,0.0,0.0,10.5625,-4.6875,-36.875,0.9994015381030621,-0.030029654131348883,-0.017090047066621313,-0.001647968824281341,101651.5,131072,0,
1594838228928860562,23.0,-70.0,959.0,-0.0625,-0.0625,-0.0625,10.1875,-4.6875,-38.875,0.9994015381030621,-0.030029654131348883,-0.017090047066621313,-0.001647968824281341,101651.5,131072,0,
1594838228953277330,25.0,-67.0,961.0,-0.0625,-0.125,0.0,10.1875,-4.6875,-38.875,0.9994015381030621,-0.030029654131348883,-0.017090047066621313,-0.001647968824281341,101651.5,131072,0,
1594838228977473898,21.0,-69.0,959.0,-0.125,0.0,0.0,11.25,-5.375,-38.0625,0.9994015381030621,-0.030029654131348883,-0.017090047066621313,-0.001647968824281341,101651.5,131072,0,
1594838229005764850,23.0,-72.0,960.0,0.1875,-0.25,0.0625,10.875,-4.6875,-37.6875,0.9994015381030621,-0.030029654131348883,-0.017090047066621313,-0.001647968824281341,101651.5,131072,0,
1594838229029672668,23.0,-67.0,959.0,-0.0625,0.0,0.0625,10.875,-4.6875,-37.6875,0.9994015381030621,-0.030029654131348883,-0.017090047066621313,-0.001647968824281341,101657.75,131072,0,
1594838229053042824,22.0,-68.0,960.0,0.1875,-0.0625,0.0,10.875,-4.6875,-37.6875,0.9994015381030621,-0.030029654131348883,-0.017090047066621313,-0.001647968824281341,101657.75,131072,0,
1594838229078858094,22.0,-70.0,959.0,0.0625,-0.125,-0.125,10.5625,-4.6875,-37.6875,0.9994015381030621,-0.030029654131348883,-0.017090047066621313,-0.001647968824281341,101657.75,131072,0,
1594838229101283562,23.0,-69.0,959.0,0.0,0.125,0.0,10.5625,-4.6875,-37.6875,0.9994015381030621,-0.030029654131348883,-0.017090047066621313,-0.001647968824281341,101657.75,131072,0,
1594838229125007024,22.0,-70.0,962.0,0.0625,-0.0625,0.125,10.5625,-5.375,-38.875,0.9994015381030621,-0.030029654131348883,-0.017090047066621313,-0.001647968824281341,101657.75,131072,0,
1594838229150242488,22.0,-70.0,963.0,0.0625,0.1875,-0.0625,10.5625,-5.375,-38.875,0.9994015381030621,-0.030029654131348883,-0.017090047066621313,-0.001647968824281341,101657.75,131072,0,
1594838229177703962,24.0,-69.0,960.0,0.0625,0.0625,-0.125,10.1875,-4.6875,-39.25,0.9994015381030621,-0.030029654131348883,-0.017090047066621313,-0.001647968824281341,101657.75,131072,0,
1594838229209933834,25.0,-70.0,960.0,-0.125,0.4375,0.0625,10.5625,-4.25,-38.0625,0.9994015381030621,-0.030029654131348883,-0.017090047066621313,-0.001647968824281341,101657.75,131072,0,
1594838229249472140,22.0,-68.0,961.0,0.125,0.0625,0.0625,10.5625,-4.25,-38.0625,0.9994015381030621,-0.030029654131348883,-0.017090047066621313,-0.001647968824281341,101657.75,131072,0,
1594838229283162692,23.0,-69.0,962.0,-0.0625,0.0625,-0.0625,10.5625,-4.6875,-38.0625,0.9994015381030621,-0.030029654131348883,-0.017090047066621313,-0.001647968824281341,101657.75,131072,0,
1594838229315887656,22.0,-69.0,962.0,0.0,-0.125,15.9375,10.5625,-3.5625,-39.25,0.9994015381030621,-0.030029654131348883,-0.017090047066621313,-0.001647968824281341,101657.75,131072,0,
1594838229351739493,24.0,-71.0,964.0,0.125,0.0,0.0,10.875,-4.6875,-37.6875,0.9994015381030621,-0.030029654131348883,-0.017090047066621313,-0.001647968824281341,101657.75,131072,0,
1594838229382201585,24.0,-69.0,961.0,-0.1875,0.3125,0.0,10.875,-4.6875,-37.6875,0.9994015381030621,-0.030029654131348883,-0.017090047066621313,-0.001647968824281341,101657.75,131072,0,
1594838229414558324,23.0,-71.0,962.0,0.0625,0.0625,-0.125,11.5625,-5.375,-38.875,0.9994015381030621,-0.030029654131348883,-0.017090047066621313,-0.001647968824281341,101658.0,131072,0,
1594838229449079244,23.0,-70.0,961.0,-0.1875,0.0,0.0,11.5625,-5.375,-38.875,0.9994015381030621,-0.030029654131348883,-0.017090047066621313,-0.001647968824281341,101658.0,131072,0,
1594838229475636680,24.0,-70.0,961.0,-0.125,0.1875,-0.125,11.25,-5.375,-37.25,0.9994015381030621,-0.030029654131348883,-0.017090047066621313,-0.001647968824281341,101658.0,131072,0,
1594838229501248651,23.0,-68.0,961.0,0.1875,0.0,-0.125,11.25,-5.375,-37.25,0.9994015381030621,-0.030029654131348883,-0.017090047066621313,-0.001647968824281341,101658.0,131072,0,
1594838229525671805,22.0,-69.0,958.0,0.0625,-0.0625,-0.0625,10.875,-4.6875,-37.6875,0.9994015381030621,-0.030029654131348883,-0.017090047066621313,-0.001647968824281341,101658.0,131072,0,
1594838229551073598,21.0,-69.0,958.0,-0.125,0.0625,0.0625,10.875,-4.6875,-37.6875,0.9994015381030621,-0.030029654131348883,-0.017090047066621313,-0.001647968824281341,101658.0,131072,0,
1594838229575443794,22.0,-70.0,961.0,0.0,-0.0625,-0.0625,11.25,-5.375,-38.0625,0.9994015381030621,-0.030029654131348883,-0.017090047066621313,-0.001647968824281341,101658.0,131072,0,
1594838229599129252,23.0,-70.0,964.0,-0.1875,0.0,0.0625,11.25,-5.375,-38.0625,0.9994015381030621,-0.030029654131348883,-0.017090047066621313,-0.001647968824281341,101658.0,131072,0,
1594838229623127681,22.0,-69.0,958.0,0.1875,0.0,-0.0625,10.875,-4.6875,-38.875,0.9994015381030621,-0.030029654131348883,-0.017090047066621313,-0.001647968824281341,101658.0,131072,0,
1594838229646634187,25.0,-68.0,962.0,0.0625,-0.0625,0.0,10.875,-4.6875,-38.875,0.9994015381030621,-0.030029654131348883,-0.017090047066621313,-0.001647968824281341,101658.0,131072,0,
1594838229676871211,23.0,-71.0,961.0,-0.0625,0.0625,-0.0625,11.25,-5.0625,-37.6875,0.9994015381030621,-0.030029654131348883,-0.017090047066621313,-0.001647968824281341,101658.0,131072,0,
1594838229714168732,22.0,-69.0,958.0,0.0625,0.0625,-0.125,11.5625,-5.0625,-38.875,0.9994015381030621,-0.030029654131348883,-0.017090047066621313,-0.001647968824281341,101658.0,131072,0,
1594838229747691497,23.0,-68.0,962.0,-0.0625,0.0625,-0.0625,11.5625,-5.0625,-38.875,0.9994015381030621,-0.030029654131348883,-0.017090047066621313,-0.001647968824281341,101658.0,131072,0,
1594838229780087965,24.0,-69.0,960.0,0.0,0.0,-0.125,10.875,-4.6875,-38.0625,0.9994015381030621,-0.030029654131348883,-0.017090047066621313,-0.001647968824281341,101654.75,131072,0,
1594838229812512975,21.0,-69.0,962.0,0.1875,0.0625,0.0625,10.875,-4.6875,-38.5,0.9994015381030621,-0.030029654131348883,-0.017090047066621313,-0.001647968824281341,101654.75,131072,0,
1594838229845923156,22.0,-68.0,961.0,0.0625,0.25,0.0,10.875,-4.6875,-38.5,0.9994015381030621,-0.030029654131348883,-0.017090047066621313,-0.001647968824281341,101654.75,131072,0,
1594838229878360640,25.0,-69.0,960.0,-0.0625,0.1875,0.0,11.25,-3.875,-38.0625,0.9994015381030621,-0.030029654131348883,-0.017090047066621313,-0.001647968824281341,101654.75,131072,0,
1594838229914127983,24.0,-69.0,964.0,0.125,-0.25,-0.0625,11.5625,-5.0625,-38.375,0.9994015381030621,-0.030029654131348883,-0.017090047066621313,-0.001647968824281341,101654.75,131072,0,
1594838229947528240,23.0,-70.0,958.0,0.125,0.125,-0.0625,11.5625,-5.0625,-38.375,0.9994015381030621,-0.030029654131348883,-0.017090047066621313,-0.001647968824281341,101654.75,131072,0,
1594838229981432431,20.0,-68.0,960.0,0.1875,0.0,-0.0625,11.5625,-4.6875,-38.5,0.9994015381030621,-0.030029654131348883,-0.017090047066621313,-0.001647968824281341,101654.75,131072,0,
1594838230014298445,23.0,-71.0,963.0,0.0,0.125,-0.1875,10.5625,-5.0625,-38.0625,0.9994015381030621,-0.030029654131348883,-0.017090047066621313,-0.001647968824281341,101654.75,131072,0,
1594838230046811796,24.0,-70.0,960.0,-0.0625,0.1875,0.0,10.5625,-5.0625,-38.0625,0.9994015381030621,-0.030029654131348883,-0.017090047066621313,-0.001647968824281341,101654.75,131072,0,
1594838230084480107,23.0,-71.0,961.0,-0.125,0.0625,0.0,10.875,-5.0625,-38.0625,0.9994015381030621,-0.030029654131348883,-0.017090047066621313,-0.001647968824281341,101654.75,131072,0,
1594838230125782108,26.0,-69.0,961.0,-0.125,0.0,-0.125,11.25,-5.375,-38.375,0.9994015381030621,-0.030029654131348883,-0.017090047066621313,-0.001647968824281341,101654.75,131072,0,
1594838230166820180,22.0,-69.0,960.0,-0.125,0.0625,0.0625,10.875,-5.75,-38.0625,0.9994015381030621,-0.030029654131348883,-0.017090047066621313,-0.001647968824281341,101658.25,131072,0,
1594838230202511321,22.0,-67.0,962.0,0.0625,0.0625,0.0625,10.875,-5.75,-38.0625,0.9994015381030621,-0.030029654131348883,-0.017090047066621313,-0.001647968824281341,101658.25,131072,0,
1594838230239164774,22.0,-70.0,960.0,-0.0625,0.125,0.0,11.25,-5.0625,-38.0625,0.9994015381030621,-0.030029654131348883,-0.017090047066621313,-0.001647968824281341,101658.25,131072,0,
1594838230276126974,22.0,-71.0,961.0,0.0625,0.125,0.125,10.875,-5.0625,-37.6875,0.9994015381030621,-0.030029654131348883,-0.017090047066621313,-0.001647968824281341,101658.25,131072,0,
1594838230317121581,24.0,-69.0,959.0,-0.0625,-0.1875,0.125,10.5625,-4.6875,-37.6875,0.9994015381030621,-0.030029654131348883,-0.017090047066621313,-0.001647968824281341,101658.25,131072,0,
1594838230350813347,22.0,-68.0,959.0,0.1875,-0.0625,0.0,10.5625,-4.6875,-37.6875,0.9994015381030621,-0.030029654131348883,-0.017090047066621313,-0.001647968824281341,101658.25,131072,0,
1594838230386690396,22.0,-70.0,960.0,0.125,0.0,0.125,11.25,-5.75,-38.0625,0.9994015381030621,-0.030029654131348883,-0.017090047066621313,-0.001647968824281341,101658.25,131072,0,
1594838230425274947,23.0,-71.0,962.0,-0.4375,0.125,0.125,10.875,-5.375,-37.25,0.9994015381030621,-0.030029654131348883,-0.017090047066621313,-0.001647968824281341,101658.25,131072,0,
1594838230468650415,22.0,-68.0,961.0,-0.375,-0.0625,-0.0625,10.875,-5.0625,-38.0625,0.9994015381030621,-0.030029654131348883,-0.017090047066621313,-0.001647968824281341,101658.25,131072,0,
1594838230505222055,23.0,-69.0,959.0,0.0,0.0,0.125,10.875,-5.0625,-38.0625,0.9994015381030621,-0.030029654131348883,-0.017090047066621313,-0.001647968824281341,101658.25,131072,0,
1594838230543021294,23.0,-70.0,960.0,-0.0625,0.1875,0.125,10.5625,-4.25,-40.0625,0.9994015381030621,-0.030029654131348883,-0.017090047066621313,-0.001647968824281341,101657.5,131072,0,
1594838230578108140,22.0,-68.0,962.0,0.1875,-0.1875,0.0,10.875,-4.25,-37.25,0.9994015381030621,-0.030029654131348883,-0.017090047066621313,-0.001647968824281341,101657.5,131072,0,
1594838230610693317,20.0,-67.0,961.0,-0.25,0.125,0.0,11.5625,-4.25,-37.25,0.9994015381030621,-0.030029654131348883,-0.017090047066621313,-0.001647968824281341,101657.5,131072,0,
1594838230640952801,22.0,-69.0,957.0,0.125,0.125,0.0,11.5625,-5.375,-38.5,0.9994015381030621,-0.030029654131348883,-0.017090047066621313,-0.001647968824281341,101657.5,131072,0,
1594838230675889519,23.0,-70.0,959.0,0.3125,0.0625,0.0625,11.25,-5.0625,-37.6875,0.9994015381030621,-0.030029654131348883,-0.017090047066621313,-0.001647968824281341,101657.5,131072,0,
1594838230709628833,24.0,-69.0,961.0,-0.1875,-0.0625,0.0625,10.875,-4.25,-38.0625,0.9994015381030621,-0.030029654131348883,-0.017090047066621313,-0.001647968824281341,101657.5,131072,0,
1594838230743571946,23.0,-69.0,961.0,0.1875,-0.125,0.0,10.875,-4.25,-38.0625,0.9994015381030621,-0.030029654131348883,-0.017090047066621313,-0.001647968824281341,101657.5,131072,0,
1594838230777237296,25.0,-69.0,961.0,0.0,-0.125,0.0625,10.5625,-5.0625,-38.5,0.9994015381030621,-0.030029654131348883,-0.017090047066621313,-0.001647968824281341,101657.5,131072,0,
1594838230808268651,23.0,-70.0,961.0,0.25,0.0625,0.125,10.5625,-3.875,-38.0625,0.9994015381030621,-0.030029654131348883,-0.017090047066621313,-0.001647968824281341,101657.5,131072,0,
1594838230841140616,22.0,-70.0,958.0,0.0,0.0625,0.0625,10.5625,-3.875,-38.0625,0.9994015381030621,-0.030029654131348883,-0.017090047066621313,-0.001647968824281341,101657.5,131072,0,
1594838230872951563,24.0,-69.0,961.0,0.0625,0.0,0.0,10.5625,-3.875,-38.5,0.9994015381030621,-0.030029654131348883,-0.017090047066621313,-0.001647968824281341,101657.5,131072,0,
1594838230904607372,24.0,-71.0,959.0,0.0,-0.0625,-0.0625,10.5625,-3.875,-38.5,0.9994015381030621,-0.030029654131348883,-0.017090047066621313,-0.001647968824281341,101657.5,131072,0,
1594838230935986357,22.0,-67.0,956.0,0.125,0.3125,0.0625,11.25,-3.5625,-38.5,0.9994015381030621,-0.030029654131348883,-0.017090047066621313,-0.001647968824281341,101661.5,131072,0,
1594838230966044532,21.0,-70.0,960.0,0.0,-0.1875,0.0,11.25,-5.0625,-38.875,0.9994015381030621,-0.030029654131348883,-0.017090047066621313,-0.001647968824281341,101661.5,1048576,0,
1594838230998278841,24.0,-69.0,961.0,0.125,-0.0625,0.125,11.25,-5.0625,-38.875,0.9994015381030621,-0.030029654131348883,-0.017090047066621313,-0.001647968824281341,101661.5,131072,0,
1594838231029502927,22.0,-70.0,961.0,-0.0625,0.0625,-0.0625,12.0,-5.0625,-37.25,0.9994015381030621,-0.030029654131348883,-0.017090047066621313,-0.001647968824281341,101661.5,131072,0,
1594838231064179851,22.0,-70.0,961.0,-0.0625,0.125,0.0625,11.6875,-4.6875,-38.5,0.9994015381030621,-0.030029654131348883,-0.017090047066621313,-0.001647968824281341,101661.5,131072,0,
1594838231099757326,23.0,-70.0,960.0,0.1875,-0.0625,-0.0625,11.6875,-4.6875,-38.5,0.9994015381030621,-0.030029654131348883,-0.017090047066621313,-0.001647968824281341,101661.5,131072,0,
1594838231135674520,24.0,-70.0,960.0,-0.0625,0.125,-0.0625,10.5625,-4.6875,-38.0625,0.9994015381030621,-0.030029654131348883,-0.017090047066621313,-0.001647968824281341,101661.5,131072,0,
1594838231171257376,23.0,-70.0,963.0,0.0,-0.125,-0.0625,10.875,-5.0625,-38.0625,0.9994015381030621,-0.030029654131348883,-0.017090047066621313,-0.001647968824281341,101661.5,131072,0,
1594838231213385726,22.0,-69.0,962.0,0.125,0.0625,0.0625,11.6875,-4.25,-38.0625,0.9994015381030621,-0.030029654131348883,-0.017090047066621313,-0.001647968824281341,101661.5,131072,0,
1594838231248027818,24.0,-69.0,963.0,0.0625,-0.0625,0.0,11.6875,-4.25,-38.0625,0.9994015381030621,-0.030029654131348883,-0.017090047066621313,-0.001647968824281341,101661.5,131072,0,
1594838231282425140,24.0,-71.0,960.0,-0.125,0.0625,-0.0625,10.5625,-3.875,-38.5,0.9994015381030621,-0.030029654131348883,-0.017090047066621313,-0.001647968824281341,101661.5,131072,0,
1594838231314191532,24.0,-71.0,963.0,-0.0625,-0.125,-0.0625,10.875,-5.0625,-38.5,0.9994015381030621,-0.030029654131348883,-0.017090047066621313,-0.001647968824281341,101656.5,131072,0,
1594838231347000041,22.0,-70.0,961.0,-0.1875,-0.1875,-0.125,10.875,-5.0625,-38.5,0.9994015381030621,-0.030029654131348883,-0.017090047066621313,-0.001647968824281341,101656.5,131072,0,
1594838231380740053,23.0,-70.0,959.0,-0.0625,0.0625,-0.0625,10.5625,-4.25,-38.875,0.9994015381030621,-0.030029654131348883,-0.017090047066621313,-0.001647968824281341,101656.5,131072,0,
1594838231414060080,22.0,-70.0,959.0,0.125,0.0,-0.0625,10.5625,-3.875,-38.0625,0.9994015381030621,-0.030029654131348883,-0.017090047066621313,-0.001647968824281341,101656.5,131072,0,
1594838231448718581,23.0,-68.0,958.0,0.1875,-0.125,0.0,10.5625,-3.875,-38.0625,0.9994015381030621,-0.030029654131348883,-0.017090047066621313,-0.001647968824281341,101656.5,131072,0,
1594838231482473360,23.0,-69.0,957.0,0.125,-0.125,0.0,11.25,-4.6875,-36.875,0.9994015381030621,-0.030029654131348883,-0.017090047066621313,-0.001647968824281341,101656.5,131072,0,
1594838231516189084,22.0,-69.0,961.0,0.25,-0.0625,0.0,11.25,-4.6875,-36.875,0.9994015381030621,-0.030029654131348883,-0.017090047066621313,-0.001647968824281341,101656.5,131072,0,
1594838231549099481,23.0,-70.0,961.0,0.0625,0.0,-0.0625,10.875,-4.6875,-38.5,0.9994015381030621,-0.030029654131348883,-0.017090047066621313,-0.001647968824281341,101656.5,131072,0,
1594838231583626218,23.0,-69.0,962.0,0.0625,-0.0625,0.0625,10.875,-4.25,-38.875,0.9994015381030621,-0.030029654131348883,-0.017090047066621313,-0.001647968824281341,101656.5,131072,0,
1594838231617566125,24.0,-69.0,959.0,0.0,-0.25,-0.1875,10.875,-4.25,-38.875,0.9994015381030621,-0.030029654131348883,-0.017090047066621313,-0.001647968824281341,101656.5,131072,0,
1594838231651652653,23.0,-69.0,960.0,0.1875,0.25,0.125,11.25,-4.6875,-37.25,0.9994015381030621,-0.030029654131348883,-0.017090047066621313,-0.001647968824281341,101656.5,131072,0,
1594838231684754143,25.0,-70.0,961.0,0.0,0.0,-0.0625,10.875,-4.6875,-38.0625,0.9994015381030621,-0.030029654131348883,-0.017090047066621313,-0.001647968824281341,101658.25,131072,0,
1594838231717195773,21.0,-71.0,961.0,0.1875,-0.25,0.0625,10.875,-4.6875,-38.0625,0.9994015381030621,-0.030029654131348883,-0.017090047066621313,-0.001647968824281341,101658.25,131072,0,
1594838231757908926,22.0,-71.0,961.0,0.125,-0.1875,0.1875,10.875,-4.6875,-37.25,0.9994015381030621,-0.030029654131348883,-0.017090047066621313,-0.001647968824281341,101658.25,131072,0,
1594838231791228316,24.0,-69.0,962.0,-0.125,0.0,0.125,11.25,-4.6875,-38.5,0.9994015381030621,-0.030029654131348883,-0.017090047066621313,-0.001647968824281341,101658.25,1048576,0,
1594838231824784769,24.0,-69.0,961.0,0.0,0.125,-16.0,11.25,-4.25,-37.6875,0.9994015381030621,-0.030029654131348883,-0.017090047066621313,-0.001647968824281341,101658.25,131072,0,
1594838231859115806,27.0,-69.0,960.0,0.0,0.1875,0.0,11.25,-4.25,-37.6875,0.9994015381030621,-0.030029654131348883,-0.017090047066621313,-0.001647968824281341,101658.25,131072,0,
1594838231890891458,22.0,-70.0,961.0,0.0,0.0625,0.125,10.5625,-3.875,-38.875,0.9994015381030621,-0.030029654131348883,-0.017090047066621313,-0.001647968824281341,101658.25,131072,0,
1594838231925206319,24.0,-70.0,960.0,-0.0625,-0.1875,0.0625,11.25,-5.75,-38.0625,0.9994015381030621,-0.030029654131348883,-0.017090047066621313,-0.001647968824281341,101658.25,131072,0,
1594838231958972202,25.0,-73.0,959.0,-0.1875,0.0,0.0,11.25,-5.75,-38.0625,0.9994015381030621,-0.030029654131348883,-0.017090047066621313,-0.001647968824281341,101658.25,131072,0,
1594838231993103364,23.0,-70.0,961.0,0.0,-0.0625,0.0,10.875,-4.6875,-38.875,0.9994015381030621,-0.030029654131348883,-0.017090047066621313,-0.001647968824281341,101658.25,131072,0,
1594838232026612959,22.0,-69.0,960.0,0.0,-0.125,-0.0625,10.5625,-4.6875,-38.0625,0.9994015381030621,-0.030029654131348883,-0.017090047066621313,-0.001647968824281341,101658.25,131072,0,
1594838232059792316,23.0,-70.0,961.0,0.0625,0.125,0.0625,10.5625,-4.6875,-38.0625,0.9994015381030621,-0.030029654131348883,-0.017090047066621313,-0.001647968824281341,101659.25,131072,0,
1594838232095031026,23.0,-68.0,958.0,0.25,0.0,0.0,10.5625,-4.25,-37.25,0.9994015381030621,-0.030029654131348883,-0.017090047066621313,-0.001647968824281341,101659.25,131072,0,
1594838232128735901,22.0,-69.0,962.0,0.0,-0.125,0.0,10.1875,-4.25,-39.6875,0.9994015381030621,-0.030029654131348883,-0.017090047066621313,-0.001647968824281341,101659.25,131072,0,
1594838232163059795,23.0,-69.0,964.0,0.0625,0.0,-0.0625,10.1875,-4.25,-39.6875,0.9994015381030621,-0.030029654131348883,-0.017090047066621313,-0.001647968824281341,101659.25,131072,0,
1594838232200276171,22.0,-70.0,962.0,0.1875,0.0,0.0,10.5625,-5.75,-38.0625,0.9994015381030621,-0.030029654131348883,-0.017090047066621313,-0.001647968824281341,101659.25,131072,0,
1594838232233012297,24.0,-69.0,961.0,0.0,-0.0625,-0.0625,10.875,-4.6875,-38.5,0.9994015381030621,-0.030029654131348883,-0.017090047066621313,-0.001647968824281341,101659.25,131072,0,
1594838232267087414,22.0,-69.0,961.0,-0.1875,0.0625,-0.125,11.25,-4.6875,-37.25,0.9994015381030621,-0.030029654131348883,-0.017090047066621313,-0.001647968824281341,101659.25,131072,0,
1594838232300923456,22.0,-67.0,961.0,0.0,0.0625,-0.0625,11.25,-4.6875,-37.25,0.9994015381030621,-0.030029654131348883,-0.017090047066621313,-0.001647968824281341,101659.25,131072,0,
1594838232333681872,23.0,-69.0,960.0,-0.125,0.125,0.0,10.875,-5.0625,-39.25,0.9994015381030621,-0.030029654131348883,-0.017090047066621313,-0.001647968824281341,101659.25,131072,0,
1594838232366632063,22.0,-71.0,960.0,0.0,-0.125,0.0,10.5625,-4.25,-38.0625,0.9994015381030621,-0.030029654131348883,-0.017090047066621313,-0.001647968824281341,101659.25,131072,0,
1594838232403427073,24.0,-69.0,961.0,0.125,0.0625,-0.0625,10.5625,-4.25,-38.0625,0.9994015381030621,-0.030029654131348883,-0.017090047066621313,-0.001647968824281341,101659.25,131072,0,
1594838232443954108,23.0,-71.0,961.0,0.0,0.0,0.0,10.875,-5.0625,-38.5,0.9994015381030621,-0.030029654131348883,-0.017090047066621313,-0.001647968824281341,101660.75,131072,0,
1594838232477504260,24.0,-68.0,963.0,0.0,-0.0625,0.0625,10.5625,-5.0625,-38.5,0.9994015381030621,-0.030029654131348883,-0.017090047066621313,-0.001647968824281341,101660.75,131072,0,
1594838232511908843,23.0,-70.0,960.0,0.1875,-0.1875,0.0,10.5625,-5.0625,-38.5,0.9994015381030621,-0.030029654131348883,-0.017090047066621313,-0.001647968824281341,101660.75,131072,0,
1594838232544930195,22.0,-69.0,956.0,-0.0625,-0.1875,0.0625,11.6875,-4.6875,-38.0625,0.9994015381030621,-0.030029654131348883,-0.017090047066621313,-0.001647968824281341,101660.75,131072,0,
1594838232578919614,25.0,-70.0,961.0,0.0,-0.1875,-0.125,10.875,-4.6875,-39.25,0.9994015381030621,-0.030029654131348883,-0.017090047066621313,-0.001647968824281341,101660.75,131072,0,
1594838232617954956,23.0,-68.0,960.0,-0.0625,0.125,0.0625,10.875,-5.0625,-37.6875,0.9994015381030621,-0.030029654131348883,-0.017090047066621313,-0.001647968824281341,101660.75,131072,0,
1594838232653595763,22.0,-68.0,955.0,-0.25,0.1875,0.0,10.875,-5.0625,-37.6875,0.9994015381030621,-0.030029654131348883,-0.017090047066621313,-0.001647968824281341,101660.75,131072,0,
1594838232688405516,22.0,-69.0,959.0,0.0625,0.1875,0.0,11.25,-5.0625,-37.75,0.9994015381030621,-0.030029654131348883,-0.017090047066621313,-0.001647968824281341,101660.75,131072,0,
1594838232721964608,23.0,-69.0,958.0,-0.1875,0.125,-0.1875,10.875,-4.25,-38.875,0.9994015381030621,-0.030029654131348883,-0.017090047066621313,-0.001647968824281341,101660.75,131072,0,
1594838232754332178,23.0,-69.0,960.0,-0.25,-0.0625,-0.0625,10.875,-4.25,-38.875,0.9994015381030621,-0.030029654131348883,-0.017090047066621313,-0.001647968824281341,101660.75,131072,0,
1594838232789724040,22.0,-69.0,963.0,0.0625,0.0,-0.0625,10.875,-5.0625,-38.0625,0.9994015381030621,-0.030029654131348883,-0.017090047066621313,-0.001647968824281341,101660.75,131072,0,
1594838232823788329,23.0,-71.0,961.0,0.3125,0.1875,0.125,11.6875,-4.6875,-38.875,0.9994015381030621,-0.030029654131348883,-0.017090047066621313,-0.001647968824281341,101661.25,131072,0,
1594838232855931727,22.0,-71.0,962.0,-0.0625,-0.125,0.0625,11.6875,-4.6875,-38.875,0.9994015381030621,-0.030029654131348883,-0.017090047066621313,-0.001647968824281341,101661.25,131072,0,
1594838232888350163,22.0,-68.0,961.0,0.25,0.0625,-0.0625,11.25,-4.25,-37.6875,0.9994015381030621,-0.030029654131348883,-0.017090047066621313,-0.001647968824281341,101661.25,131072,0,
1594838232920743297,23.0,-69.0,959.0,0.0625,-0.1875,0.0,11.25,-4.25,-37.6875,0.9994015381030621,-0.030029654131348883,-0.017090047066621313,-0.001647968824281341,101661.25,131072,0,
1594838232953601639,24.0,-71.0,960.0,0.0625,0.0625,-0.0625,11.6875,-4.6875,-37.6875,0.9994015381030621,-0.030029654131348883,-0.017090047066621313,-0.001647968824281341,101661.25,131072,0,
1594838232986424840,24.0,-69.0,964.0,0.0,0.125,0.0,10.5625,-5.0625,-38.5,0.9994015381030621,-0.030029654131348883,-0.017090047066621313,-0.001647968824281341,101661.25,131072,0,
1594838233017810519,23.0,-68.0,959.0,0.0,0.125,-0.0625,10.5625,-5.0625,-38.5,0.9994015381030621,-0.030029654131348883,-0.017090047066621313,-0.001647968824281341,101661.25,131072,0,
1594838233050477129,23.0,-70.0,958.0,0.125,0.0625,0.0,11.25,-3.875,-39.25,0.9994015381030621,-0.030029654131348883,-0.017090047066621313,-0.001647968824281341,101661.25,131072,0,
1594838233082802848,22.0,-69.0,961.0,0.0625,-0.0625,-0.0625,9.75,-4.25,-38.5,0.9994015381030621,-0.030029654131348883,-0.017090047066621313,-0.001647968824281341,101661.25,131072,0,
1594838233116911674,23.0,-70.0,959.0,0.0625,0.0,-0.0625,9.75,-4.25,-38.5,0.9994015381030621,-0.030029654131348883,-0.017090047066621313,-0.001647968824281341,101661.25,131072,0,
1594838233150634162,22.0,-67.0,961.0,-0.3125,0.0625,0.0,10.5625,-5.0625,-38.5,0.9994015381030621,-0.030029654131348883,-0.017090047066621313,-0.001647968824281341,101661.25,131072,0,
1594838233185679727,24.0,-69.0,962.0,0.0625,0.1875,-0.125,11.25,-4.6875,-38.0625,0.9994015381030621,-0.030029654131348883,-0.017090047066621313,-0.001647968824281341,101661.25,131072,0,
1594838233219526918,23.0,-69.0,960.0,-0.125,0.0625,0.0,11.25,-4.6875,-38.0625,0.9994015381030621,-0.030029654131348883,-0.017090047066621313,-0.001647968824281341,101663.25,131072,0,
1594838233253245154,23.0,-69.0,960.0,0.0625,0.125,-0.0625,10.5625,-5.0625,-38.0625,0.9994015381030621,-0.030029654131348883,-0.017090047066621313,-0.001647968824281341,101663.25,131072,0,
1594838233286974524,22.0,-69.0,965.0,-0.125,-0.125,-0.0625,11.25,-5.375,-37.25,0.9994015381030621,-0.030029654131348883,-0.017090047066621313,-0.001647968824281341,101663.25,131072,0,
1594838233320286058,23.0,-70.0,960.0,-0.1875,-0.125,-0.0625,11.25,-5.375,-37.25,0.9994015381030621,-0.030029654131348883,-0.017090047066621313,-0.001647968824281341,101663.25,131072,0,
1594838233351286971,24.0,-67.0,960.0,-0.125,-0.0625,-0.0625,10.5625,-5.375,-38.875,0.9994015381030621,-0.030029654131348883,-0.017090047066621313,-0.001647968824281341,101663.25,131072,0,
1594838233378478154,22.0,-67.0,961.0,-0.0625,0.1875,-0.0625,10.5625,-5.375,-38.875,0.9994015381030621,-0.030029654131348883,-0.017090047066621313,-0.001647968824281341,101663.25,131072,0,
1594838233407290273,22.0,-69.0,959.0,0.0,0.0,0.0,11.25,-5.0625,-38.5,0.9994015381030621,-0.030029654131348883,-0.017090047066621313,-0.001647968824281341,101663.25,131072,0,
1594838233445364602,25.0,-69.0,961.0,-0.0625,0.125,-0.125,11.25,-3.875,-37.6875,0.9994015381030621,-0.030029654131348883,-0.017090047066621313,-0.001647968824281341,101663.25,131072,0,
1594838233479079686,22.0,-70.0,962.0,0.0,-0.0625,-0.0625,11.25,-4.6875,-38.0625,0.9994015381030621,-0.030029654131348883,-0.017090047066621313,-0.001647968824281341,101663.25,131072,0,
1594838233512577530,22.0,-68.0,961.0,-0.3125,0.1875,0.0,11.25,-4.6875,-38.0625,0.9994015381030621,-0.030029654131348883,-0.017090047066621313,-0.001647968824281341,101663.25,131072,0,
1594838233546232181,22.0,-69.0,961.0,0.0625,0.1875,-0.0625,10.875,-4.6875,-38.875,0.9994015381030621,-0.030029654131348883,-0.017090047066621313,-0.001647968824281341,101663.25,131072,0,
1594838233580604988,22.0,-69.0,961.0,-0.0625,0.0,-0.0625,10.875,-4.25,-38.875,0.9994015381030621,-0.030029654131348883,-0.017090047066621313,-0.001647968824281341,101659.75,131072,0,
1594838233609697008,23.0,-69.0,959.0,0.0,0.0625,-0.0625,10.875,-4.25,-38.875,0.9994015381030621,-0.030029654131348883,-0.017090047066621313,-0.001647968824281341,101659.75,131072,0,
1594838233635293605,22.0,-69.0,961.0,-0.0625,-0.0625,-0.0625,10.875,-5.0625,-38.0625,0.9994015381030621,-0.030029654131348883,-0.017090047066621313,-0.001647968824281341,101659.75,131072,0,
1594838233661008175,23.0,-69.0,960.0,0.0,0.1875,-0.125,10.875,-5.0625,-38.0625,0.9994015381030621,-0.030029654131348883,-0.017090047066621313,-0.001647968824281341,101659.75,131072,0,
1594838233687788340,23.0,-70.0,961.0,0.125,-0.25,0.0625,12.375,-3.875,-39.25,0.9994015381030621,-0.030029654131348883,-0.017090047066621313,-0.001647968824281341,101659.75,131072,0,
1594838233714812452,25.0,-71.0,960.0,0.0,-0.125,0.0,12.375,-3.875,-39.25,0.9994015381030621,-0.030029654131348883,-0.017090047066621313,-0.001647968824281341,101659.75,131072,0,
1594838233744922101,23.0,-68.0,961.0,0.0,-0.1875,-0.0625,11.25,-5.0625,-37.6875,0.9994015381030621,-0.030029654131348883,-0.017090047066621313,-0.001647968824281341,101659.75,131072,0,
1594838233777785674,22.0,-69.0,957.0,-0.0625,-0.0625,0.0,12.0,-3.875,-38.5,0.9994015381030621,-0.030029654131348883,-0.017090047066621313,-0.001647968824281341,101659.75,131072,0,
1594838233812043685,25.0,-69.0,961.0,0.1875,0.125,0.0625,12.0,-3.875,-38.5,0.9994015381030621,-0.030029654131348883,-0.017090047066621313,-0.001647968824281341,101659.75,131072,0,
1594838233843903248,23.0,-68.0,961.0,0.0625,-0.3125,0.0,10.875,-5.0625,-38.5,0.9994015381030621,-0.030029654131348883,-0.017090047066621313,-0.001647968824281341,101659.75,131072,0,
1594838233877125829,25.0,-69.0,963.0,-0.0625,0.125,0.0,10.875,-4.6875,-38.5,0.9994015381030621,-0.030029654131348883,-0.017090047066621313,-0.001647968824281341,101659.75,131072,0,
1594838233909866887,22.0,-71.0,961.0,-0.0625,-0.0625,0.0,10.875,-4.6875,-38.5,0.9994015381030621,-0.030029654131348883,-0.017090047066621313,-0.001647968824281341,101659.75,131072,0,
1594838233942961697,26.0,-71.0,961.0,-0.125,-0.0625,0.0,11.25,-3.875,-37.25,0.9994015381030621,-0.030029654131348883,-0.017090047066621313,-0.001647968824281341,101659.75,131072,0,
1594838233975699513,24.0,-69.0,962.0,-0.0625,-0.0625,0.0,10.5625,-4.6875,-39.25,0.9994015381030621,-0.030029654131348883,-0.017090047066621313,-0.001647968824281341,101661.25,131072,0,
1594838234008898685,25.0,-70.0,961.0,-0.125,0.0,0.0625,10.5625,-4.6875,-39.25,0.9994015381030621,-0.030029654131348883,-0.017090047066621313,-0.001647968824281341,101661.25,131072,0,
1594838234042525049,24.0,-67.0,961.0,0.0625,-0.1875,0.0625,10.875,-5.375,-39.75,0.9994015381030621,-0.030029654131348883,-0.017090047066621313,-0.001647968824281341,101661.25,131072,0,
1594838234082211323,26.0,-70.0,958.0,-0.1875,-0.0625,-0.1875,10.875,-5.375,-36.875,0.9994015381030621,-0.030029654131348883,-0.017090047066621313,-0.001647968824281341,101661.25,131072,0,
1594838234114896113,24.0,-68.0,958.0,-0.0625,0.125,0.0,10.875,-5.375,-36.875,0.9994015381030621,-0.030029654131348883,-0.017090047066621313,-0.001647968824281341,101661.25,131072,0,
1594838234150736998,23.0,-69.0,962.0,-0.0625,0.125,0.0,10.875,-4.6875,-38.875,0.9994015381030621,-0.030029654131348883,-0.017090047066621313,-0.001647968824281341,101661.25,131072,0,
1594838234188174659,22.0,-68.0,960.0,0.125,-0.0625,-0.0625,10.875,-4.6875,-38.5,0.9994015381030621,-0.030029654131348883,-0.017090047066621313,-0.001647968824281341,101661.25,131072,0,
1594838234219516096,22.0,-71.0,958.0,0.0,0.0625,-0.0625,10.875,-4.6875,-38.5,0.9994015381030621,-0.030029654131348883,-0.017090047066621313,-0.001647968824281341,101661.25,131072,0,
1594838234255814812,24.0,-70.0,961.0,0.125,-0.1875,0.0,11.25,-5.375,-38.0625,0.9994015381030621,-0.030029654131348883,-0.017090047066621313,-0.001647968824281341,101661.25,131072,0,
1594838234289557754,23.0,-69.0,961.0,-0.0625,0.1875,0.0,10.5625,-4.6875,-36.875,0.9994015381030621,-0.030029654131348883,-0.017090047066621313,-0.001647968824281341,101661.25,131072,0,
1594838234328349349,23.0,-69.0,961.0,0.0625,0.3125,0.0,10.5625,-4.6875,-36.875,0.9994015381030621,-0.030029654131348883,-0.017090047066621313,-0.001647968824281341,101662.75,131072,0,
1594838234360061383,22.0,-68.0,962.0,0.1875,-0.125,-0.125,10.875,-5.375,-38.0625,0.9994015381030621,-0.030029654131348883,-0.017090047066621313,-0.001647968824281341,101662.75,131072,0,
1594838234395625373,23.0,-71.0,963.0,0.0625,0.0,-0.0625,11.25,-5.0625,-37.25,0.9994015381030621,-0.030029654131348883,-0.017090047066621313,-0.001647968824281341,101662.75,131072,0,
1594838234429492922,22.0,-71.0,959.0,0.125,0.0,0.0,11.25,-5.0625,-37.25,0.9994015381030621,-0.030029654131348883,-0.017090047066621313,-0.001647968824281341,101662.75,131072,0,
1594838234465399765,23.0,-69.0,956.0,-0.125,0.0625,0.0,10.5625,-4.6875,-37.75,0.9994015381030621,-0.030029654131348883,-0.017090047066621313,-0.001647968824281341,101662.75,131072,0,
1594838234499331802,21.0,-68.0,959.0,-0.125,0.25,0.0,10.875,-4.25,-37.6875,0.9994015381030621,-0.030029654131348883,-0.017090047066621313,-0.001647968824281341,101662.75,1048576,0,
1594838234535415387,23.0,-70.0,962.0,0.125,0.0,0.0625,10.875,-4.25,-37.6875,0.9994015381030621,-0.030029654131348883,-0.017090047066621313,-0.001647968824281341,101662.75,131072,0,
1594838234567347948,22.0,-69.0,957.0,0.0625,0.0625,0.0,10.1875,-5.0625,-37.25,0.9994015381030621,-0.030029654131348883,-0.017090047066621313,-0.001647968824281341,101662.75,131072,0,
1594838234600271177,23.0,-68.0,959.0,0.25,-0.0625,-0.0625,10.5625,-5.375,-38.5,0.9994015381030621,-0.030029654131348883,-0.017090047066621313,-0.001647968824281341,101662.75,131072,0,
1594838234632855478,23.0,-68.0,957.0,-0.0625,-0.125,0.0,10.5625,-5.375,-38.5,0.9994015381030621,-0.030029654131348883,-0.017090047066621313,-0.001647968824281341,101662.75,131072,0,
1594838234664556467,22.0,-70.0,959.0,0.0,-0.0625,-0.0625,10.875,-4.6875,-39.25,0.9994015381030621,-0.030029654131348883,-0.017090047066621313,-0.001647968824281341,101662.75,131072,0,
1594838234695276476,23.0,-70.0,960.0,0.1875,0.0,-0.125,10.875,-5.375,-37.75,0.9994015381030621,-0.030029654131348883,-0.017090047066621313,-0.001647968824281341,101662.75,131072,0,
1594838234727906655,25.0,-69.0,963.0,-0.0625,0.0,-0.0625,10.875,-5.375,-37.75,0.9994015381030621,-0.030029654131348883,-0.017090047066621313,-0.001647968824281341,101662.0,131072,0,
1594838234760794052,22.0,-71.0,960.0,-0.125,-15.9375,-0.0625,10.5625,-4.6875,-37.6875,0.9994015381030621,-0.030029654131348883,-0.017090047066621313,-0.001647968824281341,101662.0,131072,0,
1594838234794330855,21.0,-69.0,965.0,0.0625,0.0,-0.125,10.875,-5.375,-38.5,0.9994015381030621,-0.030029654131348883,-0.017090047066621313,-0.001647968824281341,101662.0,131072,0,
1594838234829275785,24.0,-69.0,959.0,-0.1875,-0.125,-0.0625,10.875,-5.375,-38.5,0.9994015381030621,-0.030029654131348883,-0.017090047066621313,-0.001647968824281341,101662.0,131072,0,
1594838234861640018,23.0,-70.0,961.0,0.0,0.0625,0.0,10.875,-5.0625,-38.875,0.9994015381030621,-0.030029654131348883,-0.017090047066621313,-0.001647968824281341,101662.0,131072,0,
1594838234897759734,22.0,-70.0,961.0,0.0,0.0625,0.0,10.875,-5.0625,-38.0625,0.9994015381030621,-0.030029654131348883,-0.017090047066621313,-0.001647968824281341,101662.0,131072,0,
1594838234933406168,22.0,-68.0,961.0,0.0,0.0625,-0.0625,10.875,-5.0625,-38.0625,0.9994015381030621,-0.030029654131348883,-0.017090047066621313,-0.001647968824281341,101662.0,131072,0,
1594838234966071829,23.0,-69.0,961.0,0.1875,0.0625,0.0,10.875,-4.25,-36.875,0.9994015381030621,-0.030029654131348883,-0.017090047066621313,-0.001647968824281341,101662.0,131072,0,
1594838234997834860,22.0,-68.0,960.0,-0.125,0.0625,0.0625,10.5625,-3.875,-38.0625,0.9994015381030621,-0.030029654131348883,-0.017090047066621313,-0.001647968824281341,101662.0,1048576,0,
1594838235030348738,23.0,-69.0,961.0,0.0,-0.125,0.0,10.5625,-3.875,-38.0625,0.9994015381030621,-0.030029654131348883,-0.017090047066621313,-0.001647968824281341,101662.0,131072,0,
1594838235063819106,23.0,-67.0,958.0,-0.1875,-0.125,0.0625,11.6875,-5.375,-37.75,0.9994015381030621,-0.030029654131348883,-0.017090047066621313,-0.001647968824281341,101662.0,131072,0,
1594838235097099259,24.0,-67.0,963.0,-0.125,-0.125,0.125,11.25,-5.375,-37.25,0.9994015381030621,-0.030029654131348883,-0.017090047066621313,-0.001647968824281341,101662.5,131072,0,
1594838235122693091,23.0,-68.0,960.0,0.0,0.125,-0.0625,11.25,-5.375,-37.25,0.9994015381030621,-0.030029654131348883,-0.017090047066621313,-0.001647968824281341,101662.5,131072,0,
1594838235148581279,23.0,-68.0,961.0,0.1875,-0.1875,0.0,11.25,-5.375,-37.25,0.9994015381030621,-0.030029654131348883,-0.017090047066621313,-0.001647968824281341,101662.5,131072,0,
1594838235174839139,23.0,-69.0,959.0,-0.0625,0.125,-0.0625,11.25,-5.375,-37.25,0.9994015381030621,-0.030029654131348883,-0.017090047066621313,-0.001647968824281341,101662.5,131072,0,
1594838235200986509,24.0,-70.0,964.0,0.125,0.0,-0.25,10.5625,-5.0625,-38.0625,0.9994015381030621,-0.030029654131348883,-0.017090047066621313,-0.001647968824281341,101662.5,131072,0,
1594838235225723135,22.0,-71.0,962.0,-0.125,0.125,-0.125,10.5625,-5.0625,-38.0625,0.9994015381030621,-0.030029654131348883,-0.017090047066621313,-0.001647968824281341,101662.5,131072,0,
1594838235251106611,22.0,-69.0,961.0,0.0,0.1875,0.0,11.25,-5.0625,-37.75,0.9994015381030621,-0.030029654131348883,-0.017090047066621313,-0.001647968824281341,101662.5,131072,0,
1594838235275808958,22.0,-68.0,963.0,0.0,-0.125,0.0,11.25,-5.0625,-37.75,0.9994015381030621,-0.030029654131348883,-0.017090047066621313,-0.001647968824281341,101662.5,131072,0,
1594838235299873764,22.0,-69.0,959.0,-0.0625,-0.0625,-0.125,10.1875,-4.6875,-38.5625,0.9994015381030621,-0.030029654131348883,-0.017090047066621313,-0.001647968824281341,101662.5,131072,0,
1594838235323023125,22.0,-71.0,962.0,0.0,0.0625,-0.125,10.1875,-4.6875,-38.5625,0.9994015381030621,-0.030029654131348883,-0.017090047066621313,-0.001647968824281341,101662.5,131072,0,
1594838235348387796,24.0,-70.0,961.0,0.0,0.0,-0.0625,10.875,-5.375,-37.25,0.9994015381030621,-0.030029654131348883,-0.017090047066621313,-0.001647968824281341,101662.5,131072,0,
1594838235373564701,23.0,-71.0,962.0,0.0,-0.0625,0.0,10.875,-5.375,-37.25,0.9994015381030621,-0.030029654131348883,-0.017090047066621313,-0.001647968824281341,101662.5,131072,0,
1594838235398715937,24.0,-69.0,961.0,0.125,0.0625,0.0,11.6875,-4.25,-37.75,0.9994015381030621,-0.030029654131348883,-0.017090047066621313,-0.001647968824281341,101662.5,131072,0,
1594838235424483545,24.0,-67.0,961.0,-0.0625,0.0625,-0.0625,11.6875,-4.25,-37.75,0.9994015381030621,-0.030029654131348883,-0.017090047066621313,-0.001647968824281341,101662.5,131072,0,
1594838235450310544,24.0,-68.0,961.0,0.0625,0.0,0.0,10.875,-3.875,-38.875,0.9994015381030621,-0.030029654131348883,-0.017090047066621313,-0.001647968824281341,101662.5,131072,0,
1594838235476101111,24.0,-69.0,960.0,0.0,0.0,0.0,10.875,-3.875,-38.875,0.9994015381030621,-0.030029654131348883,-0.017090047066621313,-0.001647968824281341,101663.75,131072,0,
1594838235504686857,24.0,-68.0,962.0,-0.125,0.125,0.0,10.5625,-5.0625,-38.0625,0.9994015381030621,-0.030029654131348883,-0.017090047066621313,-0.001647968824281341,101663.75,131072,0,
1594838235536322015,24.0,-69.0,962.0,0.0625,0.125,0.0,10.5625,-5.0625,-38.0625,0.9994015381030621,-0.030029654131348883,-0.017090047066621313,-0.001647968824281341,101663.75,131072,0,
1594838235562254608,23.0,-71.0,960.0,0.0625,0.0625,0.0,10.875,-5.0625,-38.5,0.9994015381030621,-0.030029654131348883,-0.017090047066621313,-0.001647968824281341,101663.75,131072,0,
1594838235586913917,23.0,-68.0,964.0,0.125,-0.1875,-0.25,10.875,-5.0625,-38.5,0.9994015381030621,-0.030029654131348883,-0.017090047066621313,-0.001647968824281341,101663.75,131072,0,
1594838235612959043,22.0,-70.0,961.0,-0.0625,0.0625,-0.125,10.875,-5.375,-36.0625,0.9994015381030621,-0.030029654131348883,-0.017090047066621313,-0.001647968824281341,101663.75,131072,0,
1594838235638852325,23.0,-70.0,960.0,0.0625,-0.0625,0.0,10.875,-5.375,-36.0625,0.9994015381030621,-0.030029654131348883,-0.017090047066621313,-0.001647968824281341,101663.75,131072,0,
1594838235664702762,24.0,-70.0,957.0,0.0625,0.125,0.0625,10.1875,-5.375,-38.5,0.9994015381030621,-0.030029654131348883,-0.017090047066621313,-0.001647968824281341,101663.75,131072,0,
1594838235690677248,23.0,-71.0,959.0,0.0,0.0625,-0.0625,10.1875,-5.375,-38.5,0.9994015381030621,-0.030029654131348883,-0.017090047066621313,-0.001647968824281341,101663.75,131072,0,
1594838235714631642,25.0,-70.0,962.0,0.0625,0.0625,-0.0625,10.875,-5.0625,-38.5625,0.9994015381030621,-0.030029654131348883,-0.017090047066621313,-0.001647968824281341,101663.75,131072,0,
1594838235738394293,24.0,-69.0,959.0,0.0625,0.125,0.0,10.875,-5.0625,-38.5625,0.9994015381030621,-0.030029654131348883,-0.017090047066621313,-0.001647968824281341,101663.75,131072,0,
1594838235763168626,22.0,-70.0,959.0,-0.125,-0.0625,-0.0625,12.0,-5.0625,-37.25,0.9994015381030621,-0.030029654131348883,-0.017090047066621313,-0.001647968824281341,101663.75,131072,0,
1594838235790612724,23.0,-70.0,959.0,0.125,0.1875,-0.0625,12.0,-5.0625,-37.25,0.9994015381030621,-0.030029654131348883,-0.017090047066621313,-0.001647968824281341,101663.75,131072,0,
1594838235821852910,22.0,-70.0,961.0,0.125,-0.1875,-0.0625,10.875,-4.6875,-38.0625,0.9994015381030621,-0.030029654131348883,-0.017090047066621313,-0.001647968824281341,101663.75,131072,0,
1594838235846180143,23.0,-70.0,961.0,-0.25,0.0,0.0,10.875,-4.6875,-38.0625,0.9994015381030621,-0.030029654131348883,-0.017090047066621313,-0.001647968824281341,101663.75,131072,0,
1594838235872421043,23.0,-69.0,960.0,0.0,0.3125,-0.0625,10.875,-5.375,-37.75,0.9994015381030621,-0.030029654131348883,-0.017090047066621313,-0.001647968824281341,101666.25,131072,0,
1594838235898840603,23.0,-69.0,960.0,0.125,0.1875,0.0625,10.875,-5.375,-37.75,0.9994015381030621,-0.030029654131348883,-0.017090047066621313,-0.001647968824281341,101666.25,131072,0,
1594838235922011095,23.0,-68.0,963.0,-0.1875,0.0625,-0.0625,10.5625,-4.6875,-38.5,0.9994015381030621,-0.030029654131348883,-0.017090047066621313,-0.001647968824281341,101666.25,131072,0,
1594838235951315033,25.0,-71.0,965.0,-0.125,0.0,0.0,11.6875,-5.0625,-38.0625,0.9994015381030621,-0.030029654131348883,-0.017090047066621313,-0.001647968824281341,101666.25,131072,0,
1594838235974220708,22.0,-69.0,958.0,0.0,-0.0625,0.0,11.6875,-5.0625,-38.0625,0.9994015381030621,-0.030029654131348883,-0.017090047066621313,-0.001647968824281341,101666.25,131072,0,
1594838235996938389,25.0,-69.0,964.0,0.0625,0.0625,-0.0625,11.6875,-5.0625,-38.0625,0.9994015381030621,-0.030029654131348883,-0.017090047066621313,-0.001647968824281341,101666.25,131072,0,
1594838236020645267,22.0,-72.0,961.0,0.0625,0.125,0.0,11.6875,-4.25,-37.6875,0.9994015381030621,-0.030029654131348883,-0.017090047066621313,-0.001647968824281341,101666.25,131072,0,
1594838236044178328,25.0,-69.0,958.0,0.125,0.125,0.0,11.6875,-4.25,-37.6875,0.9994015381030621,-0.030029654131348883,-0.017090047066621313,-0.001647968824281341,101666.25,131072,0,
1594838236067669149,24.0,-69.0,961.0,0.125,-0.0625,0.0,10.875,-5.375,-38.5,0.9994015381030621,-0.030029654131348883,-0.017090047066621313,-0.001647968824281341,101666.25,131072,0,
1594838236090323734,20.0,-70.0,961.0,-0.0625,-0.125,-0.125,10.875,-5.375,-38.5,0.9994015381030621,-0.030029654131348883,-0.017090047066621313,-0.001647968824281341,101666.25,131072,0,
1594838236114900544,23.0,-70.0,959.0,-0.0625,-0.1875,-0.125,10.5625,-4.6875,-38.0625,0.9994015381030621,-0.030029654131348883,-0.017090047066621313,-0.001647968824281341,101666.25,131072,0,
1594838236138438174,22.0,-68.0,961.0,-0.0625,0.25,-0.0625,10.5625,-4.6875,-38.0625,0.9994015381030621,-0.030029654131348883,-0.017090047066621313,-0.001647968824281341,101666.25,131072,0,
1594838236167556854,22.0,-69.0,964.0,-0.1875,-0.125,0.125,9.75,-5.0625,-38.0625,0.9994015381030621,-0.030029654131348883,-0.017090047066621313,-0.001647968824281341,101666.25,131072,0,
1594838236192384397,22.0,-70.0,962.0,0.0625,0.0,0.0625,9.75,-5.0625,-38.0625,0.9994015381030621,-0.030029654131348883,-0.017090047066621313,-0.001647968824281341,101666.25,131072,0,
1594838236216126780,23.0,-68.0,959.0,0.0,0.0625,-0.25,11.6875,-4.25,-37.25,0.9994015381030621,-0.030029654131348883,-0.017090047066621313,-0.001647968824281341,101666.25,131072,0,
1594838236239457435,23.0,-67.0,959.0,-0.125,-0.0625,-0.0625,11.6875,-4.25,-37.25,0.9994015381030621,-0.030029654131348883,-0.017090047066621313,-0.001647968824281341,101666.0,131072,0,
1594838236262993580,22.0,-70.0,960.0,0.0,0.0,0.0,11.25,-4.6875,-39.6875,0.9994015381030621,-0.030029654131348883,-0.017090047066621313,-0.001647968824281341,101666.0,131072,0,
1594838236286324561,22.0,-70.0,960.0,-0.1875,0.0625,-0.0625,11.25,-4.6875,-39.6875,0.9994015381030621,-0.030029654131348883,-0.017090047066621313,-0.001647968824281341,101666.0,131072,0,
1594838236310799352,22.0,-70.0,962.0,-0.0625,0.1875,0.0,11.25,-4.25,-38.0625,0.9994015381030621,-0.030029654131348883,-0.017090047066621313,-0.001647968824281341,101666.0,131072,0,
1594838236333549594,22.0,-69.0,961.0,-0.125,0.125,-0.1875,11.25,-4.25,-38.0625,0.9994015381030621,-0.030029654131348883,-0.017090047066621313,-0.001647968824281341,101666.0,131072,0,
1594838236356662629,23.0,-69.0,961.0,0.125,0.125,0.0625,10.875,-5.375,-38.5,0.9994015381030621,-0.030029654131348883,-0.017090047066621313,-0.001647968824281341,101666.0,131072,0,
1594838236380840393,25.0,-70.0,960.0,0.0,0.0625,0.0625,10.875,-5.375,-38.5,0.9994015381030621,-0.030029654131348883,-0.017090047066621313,-0.001647968824281341,101666.0,131072,0,
1594838236404883609,22.0,-70.0,961.0,-0.1875,0.0625,0.125,10.875,-5.0625,-38.0625,0.9994015381030621,-0.030029654131348883,-0.017090047066621313,-0.001647968824281341,101666.0,131072,0,
1594838236427448860,23.0,-68.0,960.0,0.1875,-0.125,-0.0625,10.875,-5.0625,-38.0625,0.9994015381030621,-0.030029654131348883,-0.017090047066621313,-0.001647968824281341,101666.0,131072,0,
1594838236451121257,22.0,-69.0,962.0,-0.25,0.1875,-0.0625,10.875,-5.0625,-38.875,0.9994015381030621,-0.030029654131348883,-0.017090047066621313,-0.001647968824281341,101666.0,131072,0,
1594838236474099136,22.0,-67.0,958.0,0.1875,0.125,-0.125,10.875,-5.0625,-38.875,0.9994015381030621,-0.030029654131348883,-0.017090047066621313,-0.001647968824281341,101666.0,131072,0,
1594838236497377692,23.0,-70.0,964.0,-0.125,0.0625,0.0,11.25,-4.6875,-38.0625,0.9994015381030621,-0.030029654131348883,-0.017090047066621313,-0.001647968824281341,101666.0,131072,0,
1594838236521146319,23.0,-69.0,960.0,-0.125,-0.0625,0.0,11.25,-4.6875,-38.0625,0.9994015381030621,-0.030029654131348883,-0.017090047066621313,-0.001647968824281341,101666.0,131072,0,
1594838236544695352,23.0,-68.0,961.0,0.0625,0.0,0.0,11.25,-4.6875,-38.0625,0.9994015381030621,-0.030029654131348883,-0.017090047066621313,-0.001647968824281341,101666.0,131072,0,
1594838236567700148,24.0,-70.0,961.0,-0.0625,0.125,0.0,10.5625,-4.6875,-39.25,0.9994015381030621,-0.030029654131348883,-0.017090047066621313,-0.001647968824281341,101666.0,131072,0,
1594838236590849732,23.0,-69.0,961.0,-0.125,0.1875,0.0,10.5625,-4.6875,-39.25,0.9994015381030621,-0.030029654131348883,-0.017090047066621313,-0.001647968824281341,101666.0,131072,0,
1594838236614072301,20.0,-68.0,961.0,0.125,-0.0625,-0.0625,11.25,-4.25,-38.875,0.9994015381030621,-0.030029654131348883,-0.017090047066621313,-0.001647968824281341,101665.25,131072,0,
1594838236637995366,24.0,-71.0,956.0,-0.1875,0.125,0.0625,11.25,-4.25,-38.875,0.9994015381030621,-0.030029654131348883,-0.017090047066621313,-0.001647968824281341,101665.25,131072,0,
1594838236662925984,24.0,-70.0,960.0,0.1875,0.125,0.0625,10.5625,-5.0625,-37.25,0.9994015381030621,-0.030029654131348883,-0.017090047066621313,-0.001647968824281341,101665.25,131072,0,
1594838236686998029,23.0,-69.0,961.0,0.0,0.0625,0.0625,10.5625,-5.0625,-37.25,0.9994015381030621,-0.030029654131348883,-0.017090047066621313,-0.001647968824281341,101665.25,131072,0,
1594838236711551672,24.0,-69.0,961.0,0.1875,0.125,0.0,11.25,-4.6875,-37.6875,0.9994015381030621,-0.030029654131348883,-0.017090047066621313,-0.001647968824281341,101665.25,131072,0,
1594838236737401423,24.0,-68.0,960.0,-0.1875,-0.0625,-0.0625,11.25,-4.6875,-37.6875,0.9994015381030621,-0.030029654131348883,-0.017090047066621313,-0.001647968824281341,101665.25,131072,0,
1594838236763235822,22.0,-70.0,960.0,0.25,-0.1875,0.125,11.25,-4.25,-38.875,0.9994015381030621,-0.030029654131348883,-0.017090047066621313,-0.001647968824281341,101665.25,131072,0,
1594838236788731216,24.0,-68.0,960.0,-0.0625,-0.25,0.125,11.25,-4.25,-38.875,0.9994015381030621,-0.030029654131348883,-0.017090047066621313,-0.001647968824281341,101665.25,131072,0,
1594838236813431192,22.0,-69.0,958.0,0.125,0.0625,0.0,11.25,-4.6875,-38.0625,0.9994015381030621,-0.030029654131348883,-0.017090047066621313,-0.001647968824281341,101665.25,131072,0,
1594838236838797509,24.0,-68.0,961.0,-0.0625,0.0,0.0625,11.25,-4.6875,-38.0625,0.9994015381030621,-0.030029654131348883,-0.017090047066621313,-0.001647968824281341,101665.25,131072,0,
1594838236865466865,23.0,-71.0,961.0,0.0,0.0,0.0,11.6875,-5.0625,-39.75,0.9994015381030621,-0.030029654131348883,-0.017090047066621313,-0.001647968824281341,101665.25,131072,0,
1594838236890359752,22.0,-69.0,962.0,0.0,0.0,0.0625,11.6875,-5.0625,-39.75,0.9994015381030621,-0.030029654131348883,-0.017090047066621313,-0.001647968824281341,101665.25,131072,0,
1594838236915267060,24.0,-68.0,961.0,-0.125,-0.125,0.0,11.25,-4.6875,-38.5625,0.9994015381030621,-0.030029654131348883,-0.017090047066621313,-0.001647968824281341,101665.25,131072,0,
1594838236940981394,23.0,-69.0,961.0,-0.1875,0.0625,-0.0625,11.25,-4.6875,-38.5625,0.9994015381030621,-0.030029654131348883,-0.017090047066621313,-0.001647968824281341,101665.25,131072,0,
1594838236965680012,22.0,-70.0,960.0,-0.125,-0.1875,0.125,11.6875,-5.0625,-38.0625,0.9994015381030621,-0.030029654131348883,-0.017090047066621313,-0.001647968824281341,101665.25,131072,0,
1594838236990965673,22.0,-70.0,961.0,0.125,0.125,-0.0625,11.6875,-5.0625,-38.0625,0.9994015381030621,-0.030029654131348883,-0.017090047066621313,-0.001647968824281341,101663.5,131072,0,
1594838237015471021,22.0,-69.0,961.0,0.0,-0.0625,0.0625,10.1875,-5.0625,-38.5,0.9994015381030621,-0.030029654131348883,-0.017090047066621313,-0.001647968824281341,101663.5,131072,0,
1594838237040807972,23.0,-68.0,957.0,0.0625,-0.0625,0.0,10.1875,-5.0625,-38.5,0.9994015381030621,-0.030029654131348883,-0.017090047066621313,-0.001647968824281341,101663.5,131072,0,
1594838237065511465,22.0,-68.0,962.0,0.125,-0.125,0.0625,11.25,-4.6875,-38.875,0.9994015381030621,-0.030029654131348883,-0.017090047066621313,-0.001647968824281341,101663.5,131072,0,
1594838237090310594,23.0,-70.0,959.0,0.0625,-0.0625,-0.125,11.25,-4.6875,-38.875,0.9994015381030621,-0.030029654131348883,-0.017090047066621313,-0.001647968824281341,101663.5,131072,0,
1594838237114957921,22.0,-70.0,961.0,0.125,-0.1875,0.0,10.875,-4.6875,-36.875,0.9994015381030621,-0.030029654131348883,-0.017090047066621313,-0.001647968824281341,101663.5,131072,0,
1594838237139388647,26.0,-68.0,961.0,-0.125,0.0625,0.0625,10.875,-4.6875,-36.875,0.9994015381030621,-0.030029654131348883,-0.017090047066621313,-0.001647968824281341,101663.5,131072,0,
1594838237163657998,22.0,-71.0,961.0,-0.0625,-0.0625,0.0625,11.25,-5.75,-37.375,0.9994015381030621,-0.030029654131348883,-0.017090047066621313,-0.001647968824281341,101663.5,131072,0,
1594838237189141089,22.0,-70.0,961.0,0.0625,0.1875,0.0625,11.25,-5.75,-37.375,0.9994015381030621,-0.030029654131348883,-0.017090047066621313,-0.001647968824281341,101663.5,131072,0,
1594838237214363762,25.0,-69.0,964.0,0.0,0.0,0.0,11.6875,-5.0625,-38.0625,0.9994015381030621,-0.030029654131348883,-0.017090047066621313,-0.001647968824281341,101663.5,131072,0,
1594838237239112796,22.0,-67.0,959.0,0.0,-0.125,0.0,11.6875,-5.0625,-38.0625,0.9994015381030621,-0.030029654131348883,-0.017090047066621313,-0.001647968824281341,101663.5,131072,0,
1594838237263781350,23.0,-68.0,962.0,0.0625,0.125,0.0625,9.5,-3.875,-36.875,0.9994015381030621,-0.030029654131348883,-0.017090047066621313,-0.001647968824281341,101663.5,131072,0,
1594838237289054023,23.0,-68.0,961.0,-0.0625,0.0625,-0.0625,9.5,-3.875,-36.875,0.9994015381030621,-0.030029654131348883,-0.017090047066621313,-0.001647968824281341,101663.5,131072,0,
1594838237313833940,23.0,-69.0,959.0,-0.0625,0.0625,0.0625,10.5625,-3.875,-38.0625,0.9994015381030621,-0.030029654131348883,-0.017090047066621313,-0.001647968824281341,101663.5,1048576,0,
1594838237338869882,24.0,-68.0,957.0,-0.1875,0.0625,0.0,10.5625,-3.875,-38.0625,0.9994015381030621,-0.030029654131348883,-0.017090047066621313,-0.001647968824281341,101663.5,131072,0,
1594838237363827230,23.0,-68.0,963.0,-0.125,0.0,0.0625,10.1875,-3.875,-38.0625,0.9994015381030621,-0.030029654131348883,-0.017090047066621313,-0.001647968824281341,101666.75,131072,0,
1594838237389478710,23.0,-70.0,956.0,-0.1875,0.0625,0.0625,10.1875,-3.875,-38.0625,0.9994015381030621,-0.030029654131348883,-0.017090047066621313,-0.001647968824281341,101666.75,131072,0,
1594838237415270601,24.0,-68.0,961.0,0.125,0.0625,0.0,11.25,-4.6875,-37.25,0.9994015381030621,-0.030029654131348883,-0.017090047066621313,-0.001647968824281341,101666.75,131072,0,
1594838237441522925,22.0,-69.0,961.0,-0.0625,0.0625,0.0625,11.25,-4.6875,-37.25,0.9994015381030621,-0.030029654131348883,-0.017090047066621313,-0.001647968824281341,101666.75,131072,0,
1594838237467676367,22.0,-70.0,963.0,0.0625,0.1875,0.0,11.25,-4.25,-39.25,0.9994015381030621,-0.030029654131348883,-0.017090047066621313,-0.001647968824281341,101666.75,131072,0,
1594838237493045753,22.0,-69.0,958.0,0.0,0.0,0.0625,11.25,-4.25,-39.25,0.9994015381030621,-0.030029654131348883,-0.017090047066621313,-0.001647968824281341,101666.75,131072,0,
1594838237518343385,24.0,-69.0,963.0,-0.125,0.0625,0.0625,10.5625,-4.6875,-38.875,0.9994015381030621,-0.030029654131348883,-0.017090047066621313,-0.001647968824281341,101666.75,131072,0,
1594838237542890719,24.0,-68.0,963.0,-0.1875,-0.1875,0.0625,10.5625,-4.6875,-38.875,0.9994015381030621,-0.030029654131348883,-0.017090047066621313,-0.001647968824281341,101666.75,131072,0,
1594838237568687550,23.0,-68.0,960.0,-0.0625,0.125,0.0,10.5625,-3.875,-37.375,0.9994015381030621,-0.030029654131348883,-0.017090047066621313,-0.001647968824281341,101666.75,131072,0,
1594838237593998991,25.0,-71.0,960.0,-0.0625,-0.125,0.0,10.5625,-3.875,-37.375,0.9994015381030621,-0.030029654131348883,-0.017090047066621313,-0.001647968824281341,101666.75,131072,0,
1594838237619195729,23.0,-70.0,961.0,0.25,0.0625,0.0625,10.1875,-4.6875,-37.375,0.9994015381030621,-0.030029654131348883,-0.017090047066621313,-0.001647968824281341,101666.75,131072,0,
1594838237644327766,22.0,-70.0,959.0,0.0,0.0,0.125,10.1875,-4.6875,-37.375,0.9994015381030621,-0.030029654131348883,-0.017090047066621313,-0.001647968824281341,101666.75,131072,0,
1594838237668971211,25.0,-67.0,961.0,-0.0625,0.0,-0.0625,10.875,-5.375,-37.25,0.9994015381030621,-0.030029654131348883,-0.017090047066621313,-0.001647968824281341,101666.75,131072,0,
1594838237693532518,24.0,-71.0,962.0,0.4375,0.0,-0.0625,10.875,-5.375,-37.25,0.9994015381030621,-0.030029654131348883,-0.017090047066621313,-0.001647968824281341,101666.75,131072,0,
1594838237718457909,22.0,-68.0,961.0,-0.125,-0.125,-0.125,10.5625,-3.5625,-37.75,0.9994015381030621,-0.030029654131348883,-0.017090047066621313,-0.001647968824281341,101666.75,131072,0,
1594838237743043249,26.0,-68.0,959.0,-0.0625,0.0,0.0,10.5625,-3.5625,-37.75,0.9994015381030621,-0.030029654131348883,-0.017090047066621313,-0.001647968824281341,101668.5,131072,0,
1594838237767621068,24.0,-69.0,961.0,-0.0625,0.125,-0.125,10.875,-5.0625,-39.25,0.9994015381030621,-0.030029654131348883,-0.017090047066621313,-0.001647968824281341,101668.5,131072,0,
1594838237791408708,22.0,-69.0,960.0,0.0,-0.125,0.125,10.875,-5.0625,-39.25,0.9994015381030621,-0.030029654131348883,-0.017090047066621313,-0.001647968824281341,101668.5,131072,0,
1594838237816009750,25.0,-68.0,958.0,0.1875,0.125,-0.0625,10.5625,-4.6875,-37.75,0.9994015381030621,-0.030029654131348883,-0.017090047066621313,-0.001647968824281341,101668.5,131072,0,
1594838237840734645,25.0,-70.0,963.0,-0.125,-0.0625,0.0,10.5625,-4.6875,-37.75,0.9994015381030621,-0.030029654131348883,-0.017090047066621313,-0.001647968824281341,101668.5,131072,0,
1594838237866182626,24.0,-68.0,961.0,0.0,0.0625,-0.125,10.5625,-5.0625,-39.25,0.9994015381030621,-0.030029654131348883,-0.017090047066621313,-0.001647968824281341,101668.5,131072,0,
1594838237892993057,25.0,-68.0,961.0,0.0625,0.125,-0.125,10.5625,-5.0625,-39.25,0.9994015381030621,-0.030029654131348883,-0.017090047066621313,-0.001647968824281341,101668.5,131072,0,
1594838237918135743,23.0,-68.0,962.0,0.125,0.0625,-0.125,10.875,-4.6875,-38.5625,0.9994015381030621,-0.030029654131348883,-0.017090047066621313,-0.001647968824281341,101668.5,131072,0,
1594838237943895501,22.0,-69.0,959.0,0.0,-0.0625,0.0625,10.875,-4.6875,-38.5625,0.9994015381030621,-0.030029654131348883,-0.017090047066621313,-0.001647968824281341,101668.5,131072,0,
1594838237969053183,23.0,-70.0,961.0,-0.125,0.0,-0.125,11.25,-4.25,-37.75,0.9994015381030621,-0.030029654131348883,-0.017090047066621313,-0.001647968824281341,101668.5,131072,0,
1594838237993670376,24.0,-68.0,960.0,0.0,0.0625,0.0625,11.25,-4.25,-37.75,0.9994015381030621,-0.030029654131348883,-0.017090047066621313,-0.001647968824281341,101668.5,131072,0,
1594838238017996725,23.0,-71.0,958.0,-0.125,0.0,-0.0625,9.75,-3.875,-38.5,0.9994015381030621,-0.030029654131348883,-0.017090047066621313,-0.001647968824281341,101668.5,131072,0,
1594838238043458360,24.0,-70.0,962.0,-0.125,-0.0625,0.0,9.75,-3.875,-38.5,0.9994015381030621,-0.030029654131348883,-0.017090047066621313,-0.001647968824281341,101668.5,131072,0,
1594838238068733027,24.0,-68.0,963.0,0.1875,0.1875,-0.0625,11.25,-4.6875,-38.5625,0.9994015381030621,-0.030029654131348883,-0.017090047066621313,-0.001647968824281341,101668.5,131072,0,
1594838238093673569,23.0,-70.0,963.0,0.0,0.1875,0.0625,11.25,-4.6875,-38.5625,0.9994015381030621,-0.030029654131348883,-0.017090047066621313,-0.001647968824281341,101668.5,131072,0,
1594838238118830403,23.0,-68.0,961.0,-0.0625,-0.0625,0.0,10.1875,-5.375,-38.0625,0.9994015381030621,-0.030029654131348883,-0.017090047066621313,-0.001647968824281341,101665.0,131072,0,
1594838238143026619,22.0,-68.0,961.0,-0.1875,-0.0625,0.0,10.1875,-5.375,-38.0625,0.9994015381030621,-0.030029654131348883,-0.017090047066621313,-0.001647968824281341,101665.0,131072,0,
1594838238167833710,22.0,-69.0,961.0,0.0625,0.0,-0.0625,11.25,-5.0625,-38.5625,0.9994015381030621,-0.030029654131348883,-0.017090047066621313,-0.001647968824281341,101665.0,131072,0,
1594838238191666998,23.0,-68.0,960.0,0.0,-0.0625,0.0,11.25,-5.0625,-38.5625,0.9994015381030621,-0.030029654131348883,-0.017090047066621313,-0.001647968824281341,101665.0,131072,0,
1594838238217740548,24.0,-70.0,961.0,0.0625,-0.1875,0.0,10.1875,-5.0625,-38.875,0.9994015381030621,-0.030029654131348883,-0.017090047066621313,-0.001647968824281341,101665.0,131072,0,
1594838238241297660,22.0,-70.0,957.0,0.125,-0.125,0.0,10.1875,-5.0625,-38.875,0.9994015381030621,-0.030029654131348883,-0.017090047066621313,-0.001647968824281341,101665.0,131072,0,
1594838238264993161,23.0,-68.0,961.0,0.125,-0.0625,-0.0625,11.25,-4.25,-38.875,0.9994015381030621,-0.030029654131348883,-0.017090047066621313,-0.001647968824281341,101665.0,131072,0,
1594838238289788013,26.0,-71.0,961.0,-0.1875,-0.125,0.0,11.25,-4.25,-38.875,0.9994015381030621,-0.030029654131348883,-0.017090047066621313,-0.001647968824281341,101665.0,131072,0,
1594838238313103025,23.0,-67.0,962.0,-0.25,-0.0625,0.0,11.6875,-4.6875,-38.0625,0.9994015381030621,-0.030029654131348883,-0.017090047066621313,-0.001647968824281341,101665.0,131072,0,
1594838238338513616,25.0,-71.0,963.0,0.25,0.125,-0.125,11.6875,-4.6875,-38.0625,0.9994015381030621,-0.030029654131348883,-0.017090047066621313,-0.001647968824281341,101665.0,131072,0,
1594838238363969053,25.0,-70.0,961.0,-0.0625,0.0625,0.0,11.6875,-4.6875,-38.0625,0.9994015381030621,-0.030029654131348883,-0.017090047066621313,-0.001647968824281341,101665.0,131072,0,
1594838238388759821,23.0,-70.0,959.0,0.0625,-0.125,0.0,10.875,-3.875,-38.875,0.9994015381030621,-0.030029654131348883,-0.017090047066621313,-0.001647968824281341,101665.0,131072,0,
1594838238413333861,25.0,-70.0,959.0,-0.125,-0.0625,0.0,10.875,-3.875,-38.875,0.9994015381030621,-0.030029654131348883,-0.017090047066621313,-0.001647968824281341,101665.0,131072,0,
1594838238437140885,23.0,-68.0,962.0,0.0625,-0.125,0.125,10.875,-4.6875,-38.0625,0.9994015381030621,-0.030029654131348883,-0.017090047066621313,-0.001647968824281341,101665.0,131072,0,
1594838238459713691,23.0,-70.0,960.0,0.25,-0.1875,0.0,10.875,-4.6875,-38.0625,0.9994015381030621,-0.030029654131348883,-0.017090047066621313,-0.001647968824281341,101665.0,131072,0,
1594838238482348476,22.0,-67.0,963.0,0.125,0.125,0.0625,11.25,-4.6875,-38.5625,0.9994015381030621,-0.030029654131348883,-0.017090047066621313,-0.001647968824281341,101665.0,131072,0,
1594838238506974061,24.0,-69.0,958.0,-0.25,0.0625,-0.0625,11.25,-4.6875,-38.5625,0.9994015381030621,-0.030029654131348883,-0.017090047066621313,-0.001647968824281341,101666.0,131072,0,
1594838238532208344,22.0,-67.0,961.0,-0.0625,-0.1875,-0.0625,10.875,-4.25,-38.5625,0.9994015381030621,-0.030029654131348883,-0.017090047066621313,-0.001647968824281341,101666.0,131072,0,
1594838238557187291,22.0,-67.0,960.0,-0.125,-0.25,-0.0625,10.875,-4.25,-38.5625,0.9994015381030621,-0.030029654131348883,-0.017090047066621313,-0.001647968824281341,101666.0,131072,0,
1594838238582313314,23.0,-70.0,959.0,-0.125,-0.25,0.0,10.5625,-5.375,-37.75,0.9994015381030621,-0.030029654131348883,-0.017090047066621313,-0.001647968824281341,101666.0,131072,0,
1594838238605125285,23.0,-70.0,959.0,-0.0625,0.0625,-0.0625,10.5625,-5.375,-37.75,0.9994015381030621,-0.030029654131348883,-0.017090047066621313,-0.001647968824281341,101666.0,131072,0,
1594838238627865415,25.0,-69.0,961.0,-0.125,-0.0625,0.0625,10.875,-5.375,-38.5625,0.9994015381030621,-0.030029654131348883,-0.017090047066621313,-0.001647968824281341,101666.0,131072,0,
1594838238650874917,25.0,-70.0,959.0,0.0,-0.0625,-0.0625,10.875,-5.375,-38.5625,0.9994015381030621,-0.030029654131348883,-0.017090047066621313,-0.001647968824281341,101666.0,131072,0,
1594838238674340027,21.0,-69.0,961.0,0.0,-0.0625,0.0625,10.875,-4.6875,-38.5625,0.9994015381030621,-0.030029654131348883,-0.017090047066621313,-0.001647968824281341,101666.0,131072,0,
1594838238698034592,23.0,-71.0,958.0,-0.125,0.0625,0.0,10.875,-4.6875,-38.5625,0.9994015381030621,-0.030029654131348883,-0.017090047066621313,-0.001647968824281341,101666.0,131072,0,
1594838238721692625,22.0,-70.0,961.0,-0.125,0.0625,0.0,11.25,-3.875,-38.0625,0.9994015381030621,-0.030029654131348883,-0.017090047066621313,-0.001647968824281341,101666.0,131072,0,
1594838238745741670,24.0,-68.0,960.0,0.125,0.0625,0.0625,11.25,-3.875,-38.0625,0.9994015381030621,-0.030029654131348883,-0.017090047066621313,-0.001647968824281341,101666.0,131072,0,
1594838238769210603,24.0,-67.0,961.0,0.0,0.0625,0.0,11.25,-4.6875,-38.5625,0.9994015381030621,-0.030029654131348883,-0.017090047066621313,-0.001647968824281341,101666.0,131072,0,
1594838238792604531,22.0,-70.0,958.0,-0.125,0.0,0.0625,11.25,-4.6875,-38.5625,0.9994015381030621,-0.030029654131348883,-0.017090047066621313,-0.001647968824281341,101666.0,131072,0,
1594838238815235908,21.0,-68.0,961.0,0.1875,-0.125,-0.0625,11.25,-4.6875,-38.5625,0.9994015381030621,-0.030029654131348883,-0.017090047066621313,-0.001647968824281341,101666.0,131072,0,
1594838238838523916,26.0,-69.0,961.0,-0.0625,-0.0625,0.125,11.25,-5.0625,-38.5625,0.9994015381030621,-0.030029654131348883,-0.017090047066621313,-0.001647968824281341,101666.0,131072,0,
1594838238862804340,23.0,-70.0,960.0,0.0,0.0,0.0,11.25,-5.0625,-38.5625,0.9994015381030621,-0.030029654131348883,-0.017090047066621313,-0.001647968824281341,101666.0,131072,0,
1594838238886714944,23.0,-68.0,963.0,0.0625,0.0,0.125,10.875,-5.375,-37.75,0.9994015381030621,-0.030029654131348883,-0.017090047066621313,-0.001647968824281341,101665.75,131072,0,
1594838238910436577,23.0,-71.0,956.0,-0.1875,0.0625,0.1875,10.875,-5.375,-37.75,0.9994015381030621,-0.030029654131348883,-0.017090047066621313,-0.001647968824281341,101665.75,131072,0,
1594838238934461892,23.0,-67.0,959.0,0.0,-0.0625,0.0625,10.875,-5.0625,-38.5625,0.9994015381030621,-0.030029654131348883,-0.017090047066621313,-0.001647968824281341,101665.75,131072,0,
1594838238960791292,24.0,-68.0,960.0,0.125,-0.1875,0.0,10.875,-5.0625,-38.5625,0.9994015381030621,-0.030029654131348883,-0.017090047066621313,-0.001647968824281341,101665.75,131072,0,
1594838238984816007,25.0,-70.0,960.0,0.0625,0.0625,0.0,11.6875,-4.25,-38.5625,0.9994015381030621,-0.030029654131348883,-0.017090047066621313,-0.001647968824281341,101665.75,131072,0,
1594838239010961028,24.0,-70.0,959.0,0.125,-0.125,0.0,11.6875,-4.25,-38.5625,0.9994015381030621,-0.030029654131348883,-0.017090047066621313,-0.001647968824281341,101665.75,131072,0,
1594838239036074331,23.0,-68.0,960.0,0.3125,-0.0625,0.0625,9.75,-4.25,-38.875,0.9994015381030621,-0.030029654131348883,-0.017090047066621313,-0.001647968824281341,101665.75,131072,0,
1594838239059724551,23.0,-71.0,960.0,0.125,0.125,0.0625,9.75,-4.25,-38.875,0.9994015381030621,-0.030029654131348883,-0.017090047066621313,-0.001647968824281341,101665.75,131072,0,
1594838239084574197,25.0,-72.0,960.0,0.0625,0.0625,0.0625,11.6875,-4.6875,-37.75,0.9994015381030621,-0.030029654131348883,-0.017090047066621313,-0.001647968824281341,101665.75,131072,0,
1594838239107861387,23.0,-69.0,964.0,0.0625,0.125,0.0625,11.6875,-4.6875,-37.75,0.9994015381030621,-0.030029654131348883,-0.017090047066621313,-0.001647968824281341,101665.75,131072,0,
1594838239132726913,24.0,-69.0,961.0,0.1875,0.125,0.0625,10.875,-4.6875,-39.375,0.9994015381030621,-0.030029654131348883,-0.017090047066621313,-0.001647968824281341,101665.75,131072,0,
1594838239157681872,22.0,-71.0,958.0,0.0625,0.0,-0.125,10.875,-4.6875,-39.375,0.9994015381030621,-0.030029654131348883,-0.017090047066621313,-0.001647968824281341,101665.75,131072,0,
1594838239181530788,23.0,-67.0,961.0,-0.25,-0.25,0.125,11.6875,-4.6875,-38.5625,0.9994015381030621,-0.030029654131348883,-0.017090047066621313,-0.001647968824281341,101665.75,131072,0,
1594838239206870445,24.0,-71.0,959.0,-0.0625,0.0625,-0.0625,11.6875,-4.6875,-38.5625,0.9994015381030621,-0.030029654131348883,-0.017090047066621313,-0.001647968824281341,101665.75,131072,0,
1594838239231182767,22.0,-71.0,961.0,-0.0625,-0.0625,0.0625,10.875,-4.6875,-37.375,0.9994015381030621,-0.030029654131348883,-0.017090047066621313,-0.001647968824281341,101665.75,131072,0,
1594838239256031886,24.0,-68.0,961.0,-0.0625,0.125,0.0,10.875,-4.6875,-37.375,0.9994015381030621,-0.030029654131348883,-0.017090047066621313,-0.001647968824281341,101665.75,131072,0,
1594838239279029459,23.0,-69.0,959.0,0.0,-0.25,0.0,11.6875,-4.25,-38.875,0.9994015381030621,-0.030029654131348883,-0.017090047066621313,-0.001647968824281341,101665.0,131072,0,
1594838239303967029,23.0,-69.0,960.0,-0.0625,-0.0625,-0.0625,11.6875,-4.25,-38.875,0.9994015381030621,-0.030029654131348883,-0.017090047066621313,-0.001647968824281341,101665.0,131072,0,
1594838239327924846,24.0,-71.0,962.0,0.0625,0.0,0.0625,10.1875,-4.25,-37.75,0.9994015381030621,-0.030029654131348883,-0.017090047066621313,-0.001647968824281341,101665.0,131072,0,
1594838239350809437,23.0,-70.0,961.0,0.125,0.1875,0.0625,10.1875,-4.25,-37.75,0.9994015381030621,-0.030029654131348883,-0.017090047066621313,-0.001647968824281341,101665.0,131072,0,
1594838239373850851,24.0,-71.0,958.0,-0.125,-0.125,0.0,10.875,-4.6875,-38.5625,0.9994015381030621,-0.030029654131348883,-0.017090047066621313,-0.001647968824281341,101665.0,131072,0,
1594838239397078971,25.0,-69.0,960.0,0.0,-0.1875,0.0625,10.875,-4.6875,-38.5625,0.9994015381030621,-0.030029654131348883,-0.017090047066621313,-0.001647968824281341,101665.0,131072,0,
1594838239420310907,23.0,-69.0,964.0,0.0,-0.0625,0.0625,11.6875,-4.6875,-39.25,0.9994015381030621,-0.030029654131348883,-0.017090047066621313,-0.001647968824281341,101665.0,131072,0,
1594838239444546182,24.0,-69.0,956.0,0.0625,-0.125,0.0625,11.6875,-4.6875,-39.25,0.9994015381030621,-0.030029654131348883,-0.017090047066621313,-0.001647968824281341,101665.0,131072,0,
1594838239468548683,21.0,-71.0,962.0,-0.125,0.0625,0.0625,10.5625,-4.6875,-38.0625,0.9994015381030621,-0.030029654131348883,-0.017090047066621313,-0.001647968824281341,101665.0,131072,0,
1594838239491475033,24.0,-71.0,956.0,-0.1875,0.0,0.0625,10.5625,-4.6875,-38.0625,0.9994015381030621,-0.030029654131348883,-0.017090047066621313,-0.001647968824281341,101665.0,131072,0,
1594838239514956081,22.0,-71.0,959.0,0.25,0.0625,-0.0625,11.25,-4.25,-38.5625,0.9994015381030621,-0.030029654131348883,-0.017090047066621313,-0.001647968824281341,101665.0,131072,0,
1594838239538985892,23.0,-68.0,962.0,-0.1875,0.1875,0.1875,11.25,-4.25,-38.5625,0.9994015381030621,-0.030029654131348883,-0.017090047066621313,-0.001647968824281341,101665.0,131072,0,
1594838239562916120,25.0,-69.0,964.0,0.0,0.0,0.0625,11.25,-4.25,-38.5625,0.9994015381030621,-0.030029654131348883,-0.017090047066621313,-0.001647968824281341,101665.0,131072,0,
1594838239585939074,23.0,-70.0,961.0,0.0,-0.0625,0.0,11.25,-4.6875,-37.375,0.9994015381030621,-0.030029654131348883,-0.017090047066621313,-0.001647968824281341,101665.0,131072,0,
1594838239611181705,24.0,-70.0,958.0,0.0625,0.0,0.0625,11.25,-4.6875,-37.375,0.9994015381030621,-0.030029654131348883,-0.017090047066621313,-0.001647968824281341,101665.0,131072,0,
1594838239637193247,23.0,-68.0,964.0,0.1875,0.1875,0.125,12.375,-5.0625,-38.0625,0.9994015381030621,-0.030029654131348883,-0.017090047066621313,-0.001647968824281341,101668.25,131072,0,
1594838239663008809,22.0,-68.0,962.0,0.25,-0.0625,0.125,12.375,-5.0625,-38.0625,0.9994015381030621,-0.030029654131348883,-0.017090047066621313,-0.001647968824281341,101668.25,131072,0,
1594838239688160357,22.0,-70.0,960.0,-0.25,0.125,-0.0625,11.25,-5.375,-38.5625,0.9994015381030621,-0.030029654131348883,-0.017090047066621313,-0.001647968824281341,101668.25,131072,0,
1594838239713095568,22.0,-68.0,960.0,-0.125,0.0,0.0,11.25,-5.375,-38.5625,0.9994015381030621,-0.030029654131348883,-0.017090047066621313,-0.001647968824281341,101668.25,131072,0,
1594838239736247150,23.0,-70.0,964.0,0.0625,0.125,-0.0625,10.875,-5.0625,-37.375,0.9994015381030621,-0.030029654131348883,-0.017090047066621313,-0.001647968824281341,101668.25,131072,0,
1594838239762393552,23.0,-70.0,961.0,-0.125,0.125,0.0,10.875,-5.0625,-37.375,0.9994015381030621,-0.030029654131348883,-0.017090047066621313,-0.001647968824281341,101668.25,131072,0,
1594838239787474132,24.0,-68.0,961.0,-0.125,0.1875,-0.0625,11.6875,-5.0625,-37.375,0.9994015381030621,-0.030029654131348883,-0.017090047066621313,-0.001647968824281341,101668.25,131072,0,
1594838239816503170,23.0,-71.0,962.0,-0.0625,0.0,-0.0625,11.6875,-5.0625,-37.375,0.9994015381030621,-0.030029654131348883,-0.017090047066621313,-0.001647968824281341,101668.25,131072,0,
1594838239851486255,23.0,-71.0,960.0,-0.125,0.0,0.0,11.25,-3.25,-38.875,0.9994015381030621,-0.030029654131348883,-0.017090047066621313,-0.001647968824281341,101668.25,131072,0,
1594838239876694074,23.0,-68.0,961.0,-0.25,0.125,0.0,10.5625,-3.5625,-37.75,0.9994015381030621,-0.030029654131348883,-0.017090047066621313,-0.001647968824281341,101668.25,131072,0,
1594838239901669636,22.0,-69.0,961.0,0.0625,0.1875,0.0,10.5625,-3.5625,-37.75,0.9994015381030621,-0.030029654131348883,-0.017090047066621313,-0.001647968824281341,101668.25,131072,0,
1594838239925557005,22.0,-69.0,959.0,0.0,0.0625,-0.0625,10.875,-5.0625,-38.875,0.9994015381030621,-0.030029654131348883,-0.017090047066621313,-0.001647968824281341,101668.25,131072,0,
1594838239950728178,22.0,-70.0,961.0,0.0,0.0625,0.0,10.875,-5.0625,-38.875,0.9994015381030621,-0.030029654131348883,-0.017090047066621313,-0.001647968824281341,101668.25,131072,0,
1594838239976688544,23.0,-69.0,961.0,0.125,0.1875,-0.125,11.25,-5.375,-38.0625,0.9994015381030621,-0.030029654131348883,-0.017090047066621313,-0.001647968824281341,101668.25,131072,0,
1594838240002277567,22.0,-69.0,959.0,0.0625,0.0625,-0.0625,11.25,-5.375,-38.0625,0.9994015381030621,-0.030029654131348883,-0.017090047066621313,-0.001647968824281341,101668.25,131072,0,
1594838240027590512,25.0,-69.0,961.0,0.0625,-0.125,-0.0625,11.6875,-5.375,-37.75,0.9994015381030621,-0.030029654131348883,-0.017090047066621313,-0.001647968824281341,101666.5,131072,0,
1594838240053038584,21.0,-70.0,958.0,-0.0625,0.0625,-0.0625,11.6875,-5.375,-37.75,0.9994015381030621,-0.030029654131348883,-0.017090047066621313,-0.001647968824281341,101666.5,131072,0,
1594838240078464720,25.0,-69.0,960.0,0.125,0.0625,0.0,11.6875,-5.75,-38.875,0.9994015381030621,-0.030029654131348883,-0.017090047066621313,-0.001647968824281341,101666.5,131072,0,
1594838240103021438,23.0,-68.0,958.0,-0.0625,0.1875,0.0,11.6875,-5.75,-38.875,0.9994015381030621,-0.030029654131348883,-0.017090047066621313,-0.001647968824281341,101666.5,131072,0,
1594838240127346554,23.0,-69.0,962.0,0.125,0.0625,0.0,11.25,-3.5625,-38.5625,0.9994015381030621,-0.030029654131348883,-0.017090047066621313,-0.001647968824281341,101666.5,131072,0,
1594838240152636475,23.0,-68.0,957.0,-0.25,0.0625,-0.0625,11.25,-3.5625,-38.5625,0.9994015381030621,-0.030029654131348883,-0.017090047066621313,-0.001647968824281341,101666.5,131072,0,
1594838240177981936,24.0,-68.0,963.0,0.0,0.0,0.0625,11.25,-5.375,-38.0625,0.9994015381030621,-0.030029654131348883,-0.017090047066621313,-0.001647968824281341,101666.5,1048576,0,
1594838240203875581,23.0,-69.0,958.0,0.0625,0.0,0.1875,11.25,-5.375,-38.0625,0.9994015381030621,-0.030029654131348883,-0.017090047066621313,-0.001647968824281341,101666.5,131072,0,
1594838240229201770,22.0,-68.0,962.0,-0.1875,-0.1875,-0.0625,10.5625,-4.6875,-38.5625,0.9994015381030621,-0.030029654131348883,-0.017090047066621313,-0.001647968824281341,101666.5,131072,0,
1594838240252481368,22.0,-70.0,958.0,0.125,-0.125,0.0,10.5625,-4.6875,-38.5625,0.9994015381030621,-0.030029654131348883,-0.017090047066621313,-0.001647968824281341,101666.5,131072,0,
1594838240277261778,24.0,-68.0,958.0,-0.125,0.125,0.0,10.5625,-4.6875,-37.75,0.9994015381030621,-0.030029654131348883,-0.017090047066621313,-0.001647968824281341,101666.5,131072,0,
1594838240301124179,23.0,-69.0,959.0,-0.0625,0.0625,0.0625,10.5625,-4.6875,-37.75,0.9994015381030621,-0.030029654131348883,-0.017090047066621313,-0.001647968824281341,101666.5,131072,0,
1594838240325525362,22.0,-67.0,961.0,-0.0625,0.0,0.0625,10.5625,-5.0625,-37.75,0.9994015381030621,-0.030029654131348883,-0.017090047066621313,-0.001647968824281341,101666.5,131072,0,
1594838240347961404,22.0,-69.0,957.0,0.1875,0.0,0.0625,10.5625,-5.0625,-37.75,0.9994015381030621,-0.030029654131348883,-0.017090047066621313,-0.001647968824281341,101666.5,131072,0,
1594838240371192272,24.0,-68.0,958.0,-0.3125,0.0,0.0,10.5625,-5.0625,-37.75,0.9994015381030621,-0.030029654131348883,-0.017090047066621313,-0.001647968824281341,101666.5,131072,0,
1594838240394171750,23.0,-73.0,964.0,-0.0625,0.0,0.0,10.5625,-5.0625,-38.1875,0.9994015381030621,-0.030029654131348883,-0.017090047066621313,-0.001647968824281341,101666.5,131072,0,
1594838240417484962,23.0,-69.0,961.0,-0.0625,-0.125,0.0,10.5625,-5.0625,-38.1875,0.9994015381030621,-0.030029654131348883,-0.017090047066621313,-0.001647968824281341,101669.25,131072,0,
1594838240440206995,22.0,-70.0,959.0,0.0625,0.0625,0.0625,10.5625,-5.0625,-37.0,0.9994015381030621,-0.030029654131348883,-0.017090047066621313,-0.001647968824281341,101669.25,131072,0,
1594838240462942024,22.0,-68.0,957.0,-0.0625,0.0625,0.0,10.5625,-5.0625,-37.0,0.9994015381030621,-0.030029654131348883,-0.017090047066621313,-0.001647968824281341,101669.25,131072,0,
1594838240486752157,21.0,-68.0,961.0,0.0,0.0625,0.125,10.1875,-4.6875,-38.5625,0.9994015381030621,-0.030029654131348883,-0.017090047066621313,-0.001647968824281341,101669.25,131072,0,
1594838240510359192,22.0,-67.0,959.0,0.0,-0.1875,0.0625,10.1875,-4.6875,-38.5625,0.9994015381030621,-0.030029654131348883,-0.017090047066621313,-0.001647968824281341,101669.25,131072,0,
1594838240533630507,22.0,-69.0,961.0,-0.0625,-0.125,0.0,10.875,-5.0625,-39.375,0.9994015381030621,-0.030029654131348883,-0.017090047066621313,-0.001647968824281341,101669.25,131072,0,
1594838240557507909,22.0,-68.0,960.0,-0.1875,-0.25,0.0625,10.875,-5.0625,-39.375,0.9994015381030621,-0.030029654131348883,-0.017090047066621313,-0.001647968824281341,101669.25,131072,0,
1594838240581256331,24.0,-70.0,962.0,0.0,0.0,0.0,10.1875,-5.375,-38.1875,0.9994015381030621,-0.030029654131348883,-0.017090047066621313,-0.001647968824281341,101669.25,131072,0,
1594838240603958435,25.0,-69.0,961.0,0.0,0.25,0.0625,10.1875,-5.375,-38.1875,0.9994015381030621,-0.030029654131348883,-0.017090047066621313,-0.001647968824281341,101669.25,131072,0,
1594838240627547522,24.0,-69.0,962.0,-0.3125,-0.0625,0.0625,10.5625,-3.875,-37.375,0.9994015381030621,-0.030029654131348883,-0.017090047066621313,-0.001647968824281341,101669.25,131072,0,
1594838240652470912,21.0,-70.0,959.0,0.0625,-0.0625,-0.0625,10.5625,-3.875,-37.375,0.9994015381030621,-0.030029654131348883,-0.017090047066621313,-0.001647968824281341,101669.25,131072,0,
1594838240676656770,23.0,-68.0,961.0,-0.125,0.0,0.0625,10.875,-5.0625,-39.375,0.9994015381030621,-0.030029654131348883,-0.017090047066621313,-0.001647968824281341,101669.25,131072,0,
1594838240702201723,23.0,-69.0,962.0,0.0,0.0,-0.125,10.875,-5.0625,-39.375,0.9994015381030621,-0.030029654131348883,-0.017090047066621313,-0.001647968824281341,101669.25,131072,0,
1594838240727034047,23.0,-68.0,964.0,-0.0625,0.0,0.0625,11.6875,-5.0625,-37.375,0.9994015381030621,-0.030029654131348883,-0.017090047066621313,-0.001647968824281341,101669.25,131072,0,
1594838240752316009,23.0,-70.0,960.0,0.0,0.0,0.0,11.6875,-5.0625,-37.375,0.9994015381030621,-0.030029654131348883,-0.017090047066621313,-0.001647968824281341,101669.25,131072,0,
1594838240776710135,26.0,-69.0,959.0,-0.1875,-0.125,0.0,10.5625,-4.25,-38.5625,0.9994015381030621,-0.030029654131348883,-0.017090047066621313,-0.001647968824281341,101669.25,131072,0,
1594838240800217104,22.0,-68.0,960.0,0.25,0.125,-0.0625,10.5625,-4.25,-38.5625,0.9994015381030621,-0.030029654131348883,-0.017090047066621313,-0.001647968824281341,101667.0,131072,0,
1594838240822574074,24.0,-71.0,960.0,0.0,-0.0625,-0.0625,11.25,-4.25,-38.5625,0.9994015381030621,-0.030029654131348883,-0.017090047066621313,-0.001647968824281341,101667.0,131072,0,
1594838240845694711,24.0,-69.0,962.0,0.0,0.0625,0.0,11.25,-5.0625,-38.875,0.9994015381030621,-0.030029654131348883,-0.017090047066621313,-0.001647968824281341,101667.0,131072,0,
1594838240869518670,22.0,-69.0,961.0,0.0625,0.125,-0.125,11.25,-5.0625,-38.875,0.9994015381030621,-0.030029654131348883,-0.017090047066621313,-0.001647968824281341,101667.0,131072,0,
1594838240892783526,23.0,-69.0,960.0,0.125,0.0,-0.0625,10.875,-4.6875,-38.1875,0.9994015381030621,-0.030029654131348883,-0.017090047066621313,-0.001647968824281341,101667.0,131072,0,
1594838240920537570,22.0,-69.0,960.0,-0.25,0.1875,0.0,10.875,-4.6875,-38.1875,0.9994015381030621,-0.030029654131348883,-0.017090047066621313,-0.001647968824281341,101667.0,131072,0,
1594838240954444032,23.0,-70.0,963.0,0.1875,0.1875,-0.1875,10.875,-4.6875,-38.1875,0.9994015381030621,-0.030029654131348883,-0.017090047066621313,-0.001647968824281341,101667.0,131072,0,
1594838240988740631,20.0,-68.0,963.0,0.1875,0.0,-0.0625,10.875,-4.6875,-38.5625,0.9994015381030621,-0.030029654131348883,-0.017090047066621313,-0.001647968824281341,101667.0,131072,0,
1594838241029942571,23.0,-70.0,962.0,0.0,-0.3125,-0.0625,10.5625,-4.25,-38.5625,0.9994015381030621,-0.030029654131348883,-0.017090047066621313,-0.001647968824281341,101667.0,131072,0,
1594838241058745854,24.0,-68.0,961.0,0.0,0.0,-0.125,10.5625,-4.25,-38.5625,0.9994015381030621,-0.030029654131348883,-0.017090047066621313,-0.001647968824281341,101667.0,131072,0,
1594838241088134100,21.0,-69.0,961.0,0.0625,0.0625,0.0,11.6875,-4.6875,-37.75,0.9994015381030621,-0.030029654131348883,-0.017090047066621313,-0.001647968824281341,101667.0,131072,0,
1594838241120401743,24.0,-68.0,961.0,0.125,0.125,-0.0625,11.6875,-4.6875,-37.75,0.9994015381030621,-0.030029654131348883,-0.017090047066621313,-0.001647968824281341,101667.0,131072,0,
1594838241154399592,23.0,-67.0,960.0,0.0625,0.125,-0.125,10.1875,-4.6875,-36.875,0.9994015381030621,-0.030029654131348883,-0.017090047066621313,-0.001647968824281341,101665.5,131072,0,
1594838241187172599,22.0,-67.0,960.0,0.0,-0.1875,0.1875,10.875,-5.0625,-38.0625,0.9994015381030621,-0.030029654131348883,-0.017090047066621313,-0.001647968824281341,101665.5,131072,0,
1594838241220134237,23.0,-70.0,960.0,0.0,-0.1875,-0.0625,10.875,-5.0625,-38.0625,0.9994015381030621,-0.030029654131348883,-0.017090047066621313,-0.001647968824281341,101665.5,131072,0,
1594838241253259784,23.0,-68.0,963.0,-0.1875,0.1875,0.0,10.5625,-4.25,-36.875,0.9994015381030621,-0.030029654131348883,-0.017090047066621313,-0.001647968824281341,101665.5,131072,0,
1594838241286622492,22.0,-68.0,962.0,-0.1875,-0.125,-0.0625,10.1875,-4.25,-37.25,0.9994015381030621,-0.030029654131348883,-0.017090047066621313,-0.001647968824281341,101665.5,131072,0,
1594838241318881015,22.0,-69.0,961.0,-0.0625,-0.125,0.0,10.1875,-4.25,-37.25,0.9994015381030621,-0.030029654131348883,-0.017090047066621313,-0.001647968824281341,101665.5,131072,0,
1594838241351275593,25.0,-70.0,965.0,-0.0625,-0.25,0.125,10.5625,-5.0625,-38.5625,0.9994015381030621,-0.030029654131348883,-0.017090047066621313,-0.001647968824281341,101665.5,131072,0,
1594838241380067947,25.0,-69.0,961.0,0.0,0.125,0.0625,10.5625,-5.0625,-38.5625,0.9994015381030621,-0.030029654131348883,-0.017090047066621313,-0.001647968824281341,101665.5,131072,0,
1594838241411757335,22.0,-69.0,957.0,0.0,-0.125,0.0,12.0,-3.875,-37.25,0.9994015381030621,-0.030029654131348883,-0.017090047066621313,-0.001647968824281341,101665.5,131072,0,
1594838241442340516,23.0,-69.0,961.0,-0.1875,0.0,0.0625,10.875,-4.25,-37.75,0.9994015381030621,-0.030029654131348883,-0.017090047066621313,-0.001647968824281341,101665.5,131072,0,
1594838241467981914,25.0,-70.0,959.0,0.0,-0.1875,0.0,10.875,-4.25,-37.75,0.9994015381030621,-0.030029654131348883,-0.017090047066621313,-0.001647968824281341,101665.5,131072,0,
1594838241493711733,23.0,-67.0,961.0,-0.0625,-0.1875,0.0625,10.875,-3.25,-38.0625,0.9994015381030621,-0.030029654131348883,-0.017090047066621313,-0.001647968824281341,101665.5,131072,0,
1594838241519682916,22.0,-71.0,960.0,-0.3125,0.125,0.1875,10.875,-3.25,-38.0625,0.9994015381030621,-0.030029654131348883,-0.017090047066621313,-0.001647968824281341,101665.5,131072,0,
1594838241543304860,24.0,-68.0,961.0,0.125,0.0625,0.0625,11.6875,-4.6875,-39.25,0.9994015381030621,-0.030029654131348883,-0.017090047066621313,-0.001647968824281341,101665.75,131072,0,
1594838241568827403,22.0,-70.0,963.0,0.0,0.125,0.0625,11.6875,-4.6875,-39.25,0.9994015381030621,-0.030029654131348883,-0.017090047066621313,-0.001647968824281341,101665.75,131072,0,
1594838241592379490,25.0,-70.0,959.0,-0.1875,0.125,0.0625,10.5625,-4.6875,-37.75,0.9994015381030621,-0.030029654131348883,-0.017090047066621313,-0.001647968824281341,101665.75,131072,0,
1594838241622855063,24.0,-70.0,960.0,0.0,-0.125,0.0,10.5625,-4.6875,-37.75,0.9994015381030621,-0.030029654131348883,-0.017090047066621313,-0.001647968824281341,101665.75,131072,0,
1594838241647229269,22.0,-69.0,960.0,0.0625,0.125,-0.0625,10.875,-4.6875,-38.0625,0.9994015381030621,-0.030029654131348883,-0.017090047066621313,-0.001647968824281341,101665.75,131072,0,
1594838241671665605,21.0,-70.0,959.0,-0.25,0.0,-0.0625,10.875,-4.6875,-38.0625,0.9994015381030621,-0.030029654131348883,-0.017090047066621313,-0.001647968824281341,101665.75,131072,0,
1594838241703886637,22.0,-70.0,962.0,0.0625,15.9375,0.0625,10.5625,-5.0625,-38.0625,0.9994015381030621,-0.030029654131348883,-0.017090047066621313,-0.001647968824281341,101665.75,131072,0,
1594838241728831689,22.0,-69.0,958.0,0.0,0.0625,0.125,10.5625,-5.0625,-38.0625,0.9994015381030621,-0.030029654131348883,-0.017090047066621313,-0.001647968824281341,101665.75,131072,0,
1594838241754356597,25.0,-70.0,964.0,0.25,0.25,0.0,10.875,-5.75,-36.875,0.9994015381030621,-0.030029654131348883,-0.017090047066621313,-0.001647968824281341,101665.75,131072,0,
1594838241778768954,24.0,-69.0,963.0,0.0,0.125,-0.0625,10.875,-5.75,-36.875,0.9994015381030621,-0.030029654131348883,-0.017090047066621313,-0.001647968824281341,101665.75,131072,0,
1594838241804045211,22.0,-70.0,961.0,-0.0625,0.0,-0.0625,10.875,-4.6875,-39.25,0.9994015381030621,-0.030029654131348883,-0.017090047066621313,-0.001647968824281341,101665.75,131072,0,
1594838241828886162,23.0,-69.0,961.0,0.0625,0.125,0.0625,10.875,-4.6875,-39.25,0.9994015381030621,-0.030029654131348883,-0.017090047066621313,-0.001647968824281341,101665.75,131072,0,
1594838241852526322,23.0,-70.0,961.0,0.0625,-0.0625,-0.0625,10.875,-4.6875,-38.1875,0.9994015381030621,-0.030029654131348883,-0.017090047066621313,-0.001647968824281341,101665.75,131072,0,
1594838241877428476,22.0,-69.0,961.0,0.125,0.125,0.0625,10.875,-4.6875,-38.1875,0.9994015381030621,-0.030029654131348883,-0.017090047066621313,-0.001647968824281341,101665.75,131072,0,
1594838241900077802,22.0,-69.0,959.0,0.0,0.0,0.0,10.5625,-5.75,-39.25,0.9994015381030621,-0.030029654131348883,-0.017090047066621313,-0.001647968824281341,101665.75,131072,0,
1594838241925246680,22.0,-69.0,961.0,0.125,-0.25,0.0625,10.5625,-5.75,-39.25,0.9994015381030621,-0.030029654131348883,-0.017090047066621313,-0.001647968824281341,101673.0,131072,0,
1594838241951063834,23.0,-70.0,960.0,0.0,-0.0625,0.0625,10.5625,-5.0625,-37.75,0.9994015381030621,-0.030029654131348883,-0.017090047066621313,-0.001647968824281341,101673.0,131072,0,
1594838241975767877,24.0,-69.0,957.0,0.0625,0.0625,-0.125,10.5625,-5.0625,-37.75,0.9994015381030621,-0.030029654131348883,-0.017090047066621313,-0.001647968824281341,101673.0,131072,0,
1594838242001113685,24.0,-72.0,962.0,0.125,0.0,-0.0625,10.5625,-3.875,-37.375,0.9994015381030621,-0.030029654131348883,-0.017090047066621313,-0.001647968824281341,101673.0,131072,0,
1594838242025736328,23.0,-68.0,961.0,0.0625,-0.25,0.0,10.5625,-3.875,-37.375,0.9994015381030621,-0.030029654131348883,-0.017090047066621313,-0.001647968824281341,101673.0,131072,0,
1594838242050102350,25.0,-70.0,961.0,0.0625,0.0,0.0,10.1875,-4.6875,-38.5625,0.9994015381030621,-0.030029654131348883,-0.017090047066621313,-0.001647968824281341,101673.0,131072,0,
1594838242074441623,22.0,-69.0,960.0,0.1875,0.0,0.0625,10.1875,-4.6875,-38.5625,0.9994015381030621,-0.030029654131348883,-0.017090047066621313,-0.001647968824281341,101673.0,131072,0,
1594838242097690098,24.0,-71.0,960.0,-0.0625,0.1875,0.0,10.1875,-4.6875,-38.1875,0.9994015381030621,-0.030029654131348883,-0.017090047066621313,-0.001647968824281341,101673.0,131072,0,
1594838242122375783,22.0,-68.0,960.0,0.0,0.0,0.0625,10.1875,-4.6875,-38.1875,0.9994015381030621,-0.030029654131348883,-0.017090047066621313,-0.001647968824281341,101673.0,131072,0,
1594838242147668301,24.0,-68.0,961.0,0.125,0.0625,0.0,10.875,-5.375,-38.5625,0.9994015381030621,-0.030029654131348883,-0.017090047066621313,-0.001647968824281341,101673.0,131072,0,
1594838242173448865,23.0,-68.0,961.0,0.0,0.0,0.0,10.875,-5.375,-38.5625,0.9994015381030621,-0.030029654131348883,-0.017090047066621313,-0.001647968824281341,101673.0,131072,0,
1594838242201035060,23.0,-70.0,960.0,0.0,0.0625,0.0625,10.5625,-3.875,-38.1875,0.9994015381030621,-0.030029654131348883,-0.017090047066621313,-0.001647968824281341,101673.0,131072,0,
1594838242233734713,23.0,-69.0,960.0,-0.0625,0.0625,0.0625,10.875,-3.875,-37.75,0.9994015381030621,-0.030029654131348883,-0.017090047066621313,-0.001647968824281341,101673.0,131072,0,
1594838242265708473,21.0,-69.0,961.0,-0.0625,0.0,0.0,10.875,-3.875,-37.75,0.9994015381030621,-0.030029654131348883,-0.017090047066621313,-0.001647968824281341,101673.0,131072,0,
1594838242299140414,23.0,-68.0,959.0,0.125,-0.1875,0.125,10.875,-4.6875,-39.75,0.9994015381030621,-0.030029654131348883,-0.017090047066621313,-0.001647968824281341,101666.0,131072,0,
1594838242332944164,23.0,-69.0,960.0,0.125,0.3125,0.125,11.25,-5.375,-38.1875,0.9994015381030621,-0.030029654131348883,-0.017090047066621313,-0.001647968824281341,101666.0,131072,0,
1594838242369637835,22.0,-71.0,964.0,-0.0625,0.0625,0.0625,11.25,-5.375,-38.1875,0.9994015381030621,-0.030029654131348883,-0.017090047066621313,-0.001647968824281341,101666.0,131072,0,
1594838242404475617,23.0,-69.0,961.0,-0.125,0.0625,0.0625,10.875,-4.25,-38.5625,0.9994015381030621,-0.030029654131348883,-0.017090047066621313,-0.001647968824281341,101666.0,131072,0,
1594838242437901345,26.0,-71.0,963.0,-0.125,0.1875,0.0625,11.25,-4.6875,-37.375,0.9994015381030621,-0.030029654131348883,-0.017090047066621313,-0.001647968824281341,101666.0,131072,0,
1594838242469465602,24.0,-69.0,961.0,-0.125,0.125,0.0,11.25,-4.6875,-37.375,0.9994015381030621,-0.030029654131348883,-0.017090047066621313,-0.001647968824281341,101666.0,131072,0,
1594838242500775606,23.0,-70.0,960.0,-0.0625,0.125,0.0,11.6875,-4.25,-37.375,0.9994015381030621,-0.030029654131348883,-0.017090047066621313,-0.001647968824281341,101666.0,131072,0,
1594838242532635618,22.0,-67.0,962.0,0.1875,-0.0625,0.0,11.6875,-4.25,-37.375,0.9994015381030621,-0.030029654131348883,-0.017090047066621313,-0.001647968824281341,101666.0,131072,0,
1594838242561069442,23.0,-69.0,960.0,0.125,-0.0625,0.0,11.6875,-5.0625,-38.875,0.9994015381030621,-0.030029654131348883,-0.017090047066621313,-0.001647968824281341,101666.0,131072,0,
1594838242588287290,24.0,-70.0,960.0,-0.125,-0.0625,0.125,11.6875,-5.0625,-38.875,0.9994015381030621,-0.030029654131348883,-0.017090047066621313,-0.001647968824281341,101666.0,131072,0,
1594838242612456256,22.0,-69.0,957.0,0.125,-0.0625,0.0625,11.25,-5.0625,-38.1875,0.9994015381030621,-0.030029654131348883,-0.017090047066621313,-0.001647968824281341,101666.0,131072,0,
1594838242636106075,21.0,-67.0,961.0,0.125,0.0,0.0625,11.25,-5.0625,-38.1875,0.9994015381030621,-0.030029654131348883,-0.017090047066621313,-0.001647968824281341,101666.0,131072,0,
1594838242659909693,25.0,-69.0,960.0,-0.1875,-0.125,-0.0625,12.0,-5.0625,-37.375,0.9994015381030621,-0.030029654131348883,-0.017090047066621313,-0.001647968824281341,101666.0,131072,0,
1594838242683229703,23.0,-70.0,958.0,0.3125,-0.125,0.125,12.0,-5.0625,-37.375,0.9994015381030621,-0.030029654131348883,-0.017090047066621313,-0.001647968824281341,101668.5,131072,0,
1594838242706311416,23.0,-71.0,963.0,-0.25,0.1875,-0.0625,10.875,-5.0625,-38.1875,0.9994015381030621,-0.030029654131348883,-0.017090047066621313,-0.001647968824281341,101668.5,131072,0,
1594838242729632240,23.0,-68.0,960.0,-0.0625,0.0625,-0.0625,10.875,-5.0625,-38.1875,0.9994015381030621,-0.030029654131348883,-0.017090047066621313,-0.001647968824281341,101668.5,131072,0,
1594838242753863096,24.0,-70.0,961.0,0.0625,-0.0625,0.0625,10.875,-4.25,-38.5625,0.9994015381030621,-0.030029654131348883,-0.017090047066621313,-0.001647968824281341,101668.5,131072,0,
1594838242777527684,23.0,-69.0,962.0,0.0,0.125,-0.0625,10.875,-4.25,-38.5625,0.9994015381030621,-0.030029654131348883,-0.017090047066621313,-0.001647968824281341,101668.5,131072,0,
1594838242801495443,23.0,-72.0,963.0,0.125,-0.125,0.0625,10.1875,-4.6875,-39.375,0.9994015381030621,-0.030029654131348883,-0.017090047066621313,-0.001647968824281341,101668.5,131072,0,
1594838242825227059,26.0,-68.0,958.0,-0.0625,0.125,0.0,10.1875,-4.6875,-39.375,0.9994015381030621,-0.030029654131348883,-0.017090047066621313,-0.001647968824281341,101668.5,131072,0,
1594838242848782434,23.0,-69.0,964.0,-0.0625,0.0625,0.125,9.75,-4.6875,-38.1875,0.9994015381030621,-0.030029654131348883,-0.017090047066621313,-0.001647968824281341,101668.5,131072,0,
1594838242872955054,22.0,-71.0,959.0,0.25,-0.1875,0.0,9.75,-4.6875,-38.1875,0.9994015381030621,-0.030029654131348883,-0.017090047066621313,-0.001647968824281341,101668.5,131072,0,
1594838242896910768,22.0,-69.0,960.0,-0.0625,-0.0625,0.125,10.5625,-3.5625,-39.375,0.9994015381030621,-0.030029654131348883,-0.017090047066621313,-0.001647968824281341,101668.5,131072,0,
1594838242920261327,22.0,-67.0,960.0,0.0,0.1875,0.0,10.5625,-3.5625,-39.375,0.9994015381030621,-0.030029654131348883,-0.017090047066621313,-0.001647968824281341,101668.5,131072,0,
1594838242942354411,24.0,-70.0,959.0,0.125,0.1875,0.0,10.5625,-3.5625,-39.375,0.9994015381030621,-0.030029654131348883,-0.017090047066621313,-0.001647968824281341,101668.5,131072,0,
1594838242965045227,23.0,-67.0,963.0,-0.0625,-0.0625,0.0625,10.875,-3.875,-38.1875,0.9994015381030621,-0.030029654131348883,-0.017090047066621313,-0.001647968824281341,101668.5,131072,0,
1594838242988981870,24.0,-70.0,961.0,-0.125,0.125,-0.0625,10.875,-3.875,-38.1875,0.9994015381030621,-0.030029654131348883,-0.017090047066621313,-0.001647968824281341,101668.5,131072,0,
1594838243012883771,24.0,-70.0,963.0,-0.0625,0.0625,0.0,11.25,-5.375,-39.375,0.9994015381030621,-0.030029654131348883,-0.017090047066621313,-0.001647968824281341,101668.5,131072,0,
1594838243036318808,23.0,-69.0,964.0,0.0625,0.1875,0.125,11.25,-5.375,-39.375,0.9994015381030621,-0.030029654131348883,-0.017090047066621313,-0.001647968824281341,101668.5,131072,0,
1594838243058756185,23.0,-69.0,962.0,-0.1875,0.0625,-0.0625,11.6875,-5.0625,-38.875,0.9994015381030621,-0.030029654131348883,-0.017090047066621313,-0.001647968824281341,101667.0,131072,0,
1594838243083129078,24.0,-69.0,961.0,-0.1875,0.125,0.0,11.6875,-5.0625,-38.875,0.9994015381030621,-0.030029654131348883,-0.017090047066621313,-0.001647968824281341,101667.0,131072,0,
1594838243107119043,24.0,-68.0,961.0,0.0,0.125,0.0625,10.875,-5.0625,-38.1875,0.9994015381030621,-0.030029654131348883,-0.017090047066621313,-0.001647968824281341,101667.0,131072,0,
1594838243129784687,23.0,-69.0,960.0,0.0,0.125,-0.0625,10.875,-5.0625,-38.1875,0.9994015381030621,-0.030029654131348883,-0.017090047066621313,-0.001647968824281341,101667.0,131072,0,
1594838243153292956,21.0,-68.0,962.0,-0.125,0.25,0.125,10.5625,-4.6875,-38.5625,0.9994015381030621,-0.030029654131348883,-0.017090047066621313,-0.001647968824281341,101667.0,131072,0,
1594838243177024819,23.0,-68.0,962.0,-0.125,-0.0625,0.0625,10.5625,-4.6875,-38.5625,0.9994015381030621,-0.030029654131348883,-0.017090047066621313,-0.001647968824281341,101667.0,131072,0,
1594838243200303532,23.0,-69.0,960.0,0.125,-0.1875,0.0625,10.875,-5.375,-38.1875,0.9994015381030621,-0.030029654131348883,-0.017090047066621313,-0.001647968824281341,101667.0,131072,0,
1594838243222937273,22.0,-68.0,958.0,0.0,-0.375,0.125,10.875,-5.375,-38.1875,0.9994015381030621,-0.030029654131348883,-0.017090047066621313,-0.001647968824281341,101667.0,131072,0,
1594838243246417803,23.0,-68.0,961.0,0.0,0.0,0.0625,10.5625,-3.875,-36.5625,0.9994015381030621,-0.030029654131348883,-0.017090047066621313,-0.001647968824281341,101667.0,131072,0,
1594838243269857879,24.0,-68.0,956.0,0.125,0.0625,0.0625,10.5625,-3.875,-36.5625,0.9994015381030621,-0.030029654131348883,-0.017090047066621313,-0.001647968824281341,101667.0,131072,0,
1594838243293149315,24.0,-70.0,961.0,-0.125,-0.25,0.125,10.5625,-4.25,-38.5625,0.9994015381030621,-0.030029654131348883,-0.017090047066621313,-0.001647968824281341,101667.0,131072,0,
1594838243315904854,23.0,-70.0,959.0,0.0,-0.125,0.0,10.5625,-4.25,-38.5625,0.9994015381030621,-0.030029654131348883,-0.017090047066621313,-0.001647968824281341,101667.0,131072,0,
1594838243338960700,24.0,-69.0,961.0,0.0625,0.125,0.0,10.5625,-4.25,-38.5625,0.9994015381030621,-0.030029654131348883,-0.017090047066621313,-0.001647968824281341,101667.0,131072,0,
1594838243362074768,25.0,-68.0,962.0,0.1875,0.0625,0.0625,10.1875,-3.875,-38.5625,0.9994015381030621,-0.030029654131348883,-0.017090047066621313,-0.001647968824281341,101667.0,131072,0,
1594838243386054603,24.0,-69.0,962.0,-0.1875,-0.1875,0.0625,10.1875,-3.875,-38.5625,0.9994015381030621,-0.030029654131348883,-0.017090047066621313,-0.001647968824281341,101667.0,131072,0,
1594838243410458051,24.0,-71.0,961.0,0.0,0.125,0.0625,10.5625,-3.875,-37.375,0.9994015381030621,-0.030029654131348883,-0.017090047066621313,-0.001647968824281341,101667.0,131072,0,
1594838243437469378,23.0,-68.0,961.0,0.0,0.125,-0.0625,10.5625,-3.875,-37.375,0.9994015381030621,-0.030029654131348883,-0.017090047066621313,-0.001647968824281341,101669.25,131072,0,
1594838243463975866,23.0,-68.0,961.0,-0.1875,0.0625,0.0,10.1875,-4.6875,-37.75,0.9994015381030621,-0.030029654131348883,-0.017090047066621313,-0.001647968824281341,101669.25,131072,0,
1594838243488366833,22.0,-69.0,962.0,0.0625,-0.125,0.125,10.1875,-4.6875,-37.75,0.9994015381030621,-0.030029654131348883,-0.017090047066621313,-0.001647968824281341,101669.25,131072,0,
1594838243512799328,23.0,-69.0,964.0,0.25,-0.1875,-0.0625,11.25,-4.25,-38.1875,0.9994015381030621,-0.030029654131348883,-0.017090047066621313,-0.001647968824281341,101669.25,131072,0,
1594838243539004063,22.0,-70.0,961.0,-0.0625,-0.125,0.0625,11.25,-4.25,-38.1875,0.9994015381030621,-0.030029654131348883,-0.017090047066621313,-0.001647968824281341,101669.25,131072,0,
1594838243562074279,23.0,-70.0,960.0,-0.0625,0.125,0.125,11.25,-5.0625,-36.5625,0.9994015381030621,-0.030029654131348883,-0.017090047066621313,-0.001647968824281341,101669.25,131072,0,
1594838243585833232,24.0,-68.0,960.0,0.0,0.0,0.0625,11.25,-5.0625,-36.5625,0.9994015381030621,-0.030029654131348883,-0.017090047066621313,-0.001647968824281341,101669.25,131072,0,
1594838243610107762,24.0,-71.0,961.0,-0.125,0.0,0.0625,10.875,-3.875,-37.375,0.9994015381030621,-0.030029654131348883,-0.017090047066621313,-0.001647968824281341,101669.25,131072,0,
1594838243633391306,22.0,-69.0,961.0,0.0,-0.125,0.0,10.875,-3.875,-37.375,0.9994015381030621,-0.030029654131348883,-0.017090047066621313,-0.001647968824281341,101669.25,131072,0,
1594838243657012148,23.0,-69.0,960.0,0.125,-0.0625,0.0625,11.25,-3.875,-38.5625,0.9994015381030621,-0.030029654131348883,-0.017090047066621313,-0.001647968824281341,101669.25,131072,0,
1594838243682152149,24.0,-69.0,961.0,0.0625,-0.125,0.0625,11.25,-3.875,-38.5625,0.9994015381030621,-0.030029654131348883,-0.017090047066621313,-0.001647968824281341,101669.25,131072,0,
1594838243706929496,22.0,-69.0,961.0,-0.1875,0.125,-0.0625,10.875,-4.6875,-38.1875,0.9994015381030621,-0.030029654131348883,-0.017090047066621313,-0.001647968824281341,101669.25,131072,0,
1594838243733107418,24.0,-70.0,960.0,0.1875,-0.1875,0.0625,10.875,-4.6875,-38.1875,0.9994015381030621,-0.030029654131348883,-0.017090047066621313,-0.001647968824281341,101669.25,131072,0,
1594838243758829334,24.0,-68.0,961.0,-0.0625,0.125,-0.0625,10.1875,-4.25,-38.5625,0.9994015381030621,-0.030029654131348883,-0.017090047066621313,-0.001647968824281341,101669.25,131072,0,
1594838243783175288,23.0,-69.0,958.0,-0.0625,0.1875,0.0,10.1875,-4.25,-38.5625,0.9994015381030621,-0.030029654131348883,-0.017090047066621313,-0.001647968824281341,101669.25,131072,0,
1594838243807884923,22.0,-69.0,961.0,0.0,0.0625,-0.0625,10.5625,-4.6875,-38.5625,0.9994015381030621,-0.030029654131348883,-0.017090047066621313,-0.001647968824281341,101669.25,131072,0,
1594838243833563126,23.0,-67.0,960.0,0.0,0.0,0.0,10.5625,-4.6875,-38.5625,0.9994015381030621,-0.030029654131348883,-0.017090047066621313,-0.001647968824281341,101671.5,131072,0,
1594838243858548065,22.0,-69.0,960.0,0.125,0.0,0.0,10.5625,-4.25,-38.1875,0.9994015381030621,-0.030029654131348883,-0.017090047066621313,-0.001647968824281341,101671.5,131072,0,
1594838243882974334,25.0,-69.0,961.0,0.125,-0.0625,-0.0625,10.5625,-4.25,-38.1875,0.9994015381030621,-0.030029654131348883,-0.017090047066621313,-0.001647968824281341,101671.5,131072,0,
1594838243914350388,26.0,-68.0,962.0,0.0625,0.125,0.0,10.875,-3.875,-37.75,0.9994015381030621,-0.030029654131348883,-0.017090047066621313,-0.001647968824281341,101671.5,131072,0,
1594838243939086640,23.0,-70.0,961.0,0.125,-0.125,-0.0625,10.875,-3.875,-37.75,0.9994015381030621,-0.030029654131348883,-0.017090047066621313,-0.001647968824281341,101671.5,131072,0,
1594838243964654433,23.0,-67.0,961.0,-0.1875,0.3125,-0.125,10.1875,-5.0625,-39.375,0.9994015381030621,-0.030029654131348883,-0.017090047066621313,-0.001647968824281341,101671.5,131072,0,
1594838243991397074,23.0,-68.0,962.0,0.3125,0.125,0.0625,10.1875,-5.0625,-39.375,0.9994015381030621,-0.030029654131348883,-0.017090047066621313,-0.001647968824281341,101671.5,131072,0,
1594838244023063727,23.0,-69.0,964.0,0.0625,0.1875,-0.0625,10.1875,-5.375,-37.375,0.9994015381030621,-0.030029654131348883,-0.017090047066621313,-0.001647968824281341,101671.5,131072,0,
1594838244055013147,24.0,-68.0,962.0,0.0,-0.125,-0.0625,11.25,-3.5625,-38.1875,0.9994015381030621,-0.030029654131348883,-0.017090047066621313,-0.001647968824281341,101671.5,131072,0,
1594838244087448612,23.0,-67.0,960.0,-0.0625,0.25,-0.0625,11.25,-3.5625,-38.1875,0.9994015381030621,-0.030029654131348883,-0.017090047066621313,-0.001647968824281341,101671.5,131072,0,
1594838244120864228,23.0,-68.0,959.0,-0.1875,0.0625,-0.0625,10.875,-5.0625,-38.875,0.9994015381030621,-0.030029654131348883,-0.017090047066621313,-0.001647968824281341,101671.5,131072,0,
1594838244150656931,22.0,-67.0,961.0,0.0,0.125,-0.0625,10.5625,-5.0625,-38.875,0.9994015381030621,-0.030029654131348883,-0.017090047066621313,-0.001647968824281341,101671.5,131072,0,
1594838244180377058,22.0,-70.0,958.0,0.125,0.0,-0.0625,10.5625,-4.25,-38.875,0.9994015381030621,-0.030029654131348883,-0.017090047066621313,-0.001647968824281341,101671.5,131072,0,
1594838244213854195,25.0,-68.0,963.0,0.125,15.9375,0.0,10.5625,-5.0625,-37.375,0.9994015381030621,-0.030029654131348883,-0.017090047066621313,-0.001647968824281341,101670.5,131072,0,
1594838244246817298,24.0,-68.0,961.0,-0.0625,0.125,0.0,10.5625,-5.0625,-37.375,0.9994015381030621,-0.030029654131348883,-0.017090047066621313,-0.001647968824281341,101670.5,131072,0,
1594838244280088108,25.0,-69.0,960.0,-0.1875,0.0625,0.0625,10.875,-3.875,-37.375,0.9994015381030621,-0.030029654131348883,-0.017090047066621313,-0.001647968824281341,101670.5,131072,0,
1594838244313666044,24.0,-70.0,960.0,-0.0625,0.0,-0.0625,12.0,-5.0625,-39.375,0.9994015381030621,-0.030029654131348883,-0.017090047066621313,-0.001647968824281341,101670.5,131072,0,
1594838244347029259,23.0,-72.0,962.0,-0.1875,0.0,0.0625,12.0,-5.0625,-39.375,0.9994015381030621,-0.030029654131348883,-0.017090047066621313,-0.001647968824281341,101670.5,131072,0,
1594838244379817202,23.0,-71.0,960.0,0.0,-0.125,0.0625,11.25,-4.6875,-38.1875,0.9994015381030621,-0.030029654131348883,-0.017090047066621313,-0.001647968824281341,101670.5,131072,0,
1594838244411127248,24.0,-68.0,960.0,0.0625,0.0,-0.0625,10.875,-4.25,-37.375,0.9994015381030621,-0.030029654131348883,-0.017090047066621313,-0.001647968824281341,101670.5,131072,0,
1594838244443606629,22.0,-69.0,960.0,-0.0625,-0.0625,0.0625,10.875,-4.25,-37.375,0.9994015381030621,-0.030029654131348883,-0.017090047066621313,-0.001647968824281341,101670.5,131072,0,
1594838244477829168,24.0,-70.0,960.0,0.125,-0.0625,0.0625,10.875,-5.0625,-38.5625,0.9994015381030621,-0.030029654131348883,-0.017090047066621313,-0.001647968824281341,101670.5,131072,0,
1594838244513350205,24.0,-69.0,961.0,0.25,0.0,0.0625,11.25,-4.6875,-38.5625,0.9994015381030621,-0.030029654131348883,-0.017090047066621313,-0.001647968824281341,101670.5,131072,0,
1594838244547489428,24.0,-73.0,961.0,-0.0625,0.0,0.0,11.6875,-5.0625,-39.0,0.9994015381030621,-0.030029654131348883,-0.017090047066621313,-0.001647968824281341,101670.5,131072,0,
1594838244579937453,23.0,-69.0,958.0,0.0625,-0.0625,0.125,11.6875,-5.0625,-39.0,0.9994015381030621,-0.030029654131348883,-0.017090047066621313,-0.001647968824281341,101673.25,131072,0,
1594838244613537926,22.0,-69.0,961.0,0.0625,-0.0625,0.0,10.875,-4.6875,-38.1875,0.9994015381030621,-0.030029654131348883,-0.017090047066621313,-0.001647968824281341,101673.25,131072,0,
1594838244647938719,23.0,-70.0,960.0,0.1875,0.125,-0.0625,10.875,-5.0625,-37.375,0.9994015381030621,-0.030029654131348883,-0.017090047066621313,-0.001647968824281341,101673.25,131072,0,
1594838244681312287,21.0,-70.0,960.0,0.25,-0.1875,0.0625,10.875,-5.0625,-37.375,0.9994015381030621,-0.030029654131348883,-0.017090047066621313,-0.001647968824281341,101673.25,131072,0,
1594838244715878192,24.0,-68.0,961.0,-0.1875,-0.0625,0.0,10.1875,-4.6875,-37.75,0.9994015381030621,-0.030029654131348883,-0.017090047066621313,-0.001647968824281341,101673.25,131072,0,
1594838244748812127,23.0,-70.0,960.0,-0.125,0.0,0.0,11.6875,-4.6875,-38.5625,0.9994015381030621,-0.030029654131348883,-0.017090047066621313,-0.001647968824281341,101673.25,131072,0,
1594838244783328103,23.0,-69.0,962.0,-0.25,-0.25,0.125,11.6875,-4.6875,-38.5625,0.9994015381030621,-0.030029654131348883,-0.017090047066621313,-0.001647968824281341,101673.25,131072,0,
1594838244817206942,23.0,-69.0,963.0,0.1875,0.0625,0.0625,11.25,-5.375,-37.0,0.9994015381030621,-0.030029654131348883,-0.017090047066621313,-0.001647968824281341,101673.25,131072,0,
1594838244852061372,26.0,-70.0,961.0,0.0625,-0.125,-0.0625,10.875,-5.0625,-37.75,0.9994015381030621,-0.030029654131348883,-0.017090047066621313,-0.001647968824281341,101673.25,131072,0,
1594838244886572855,24.0,-67.0,960.0,-0.125,-0.1875,0.1875,10.875,-5.0625,-37.75,0.9994015381030621,-0.030029654131348883,-0.017090047066621313,-0.001647968824281341,101673.25,131072,0,
1594838244921424147,24.0,-68.0,960.0,-0.0625,-0.0625,0.0625,10.875,-4.6875,-39.0,0.9994015381030621,-0.030029654131348883,-0.017090047066621313,-0.001647968824281341,101673.25,131072,0,
1594838244956443227,22.0,-70.0,959.0,-0.1875,0.0625,0.0,10.875,-5.0625,-38.1875,0.9994015381030621,-0.030029654131348883,-0.017090047066621313,-0.001647968824281341,101671.25,131072,0,
1594838244988854476,21.0,-70.0,959.0,-0.125,-0.0625,0.0625,10.875,-5.0625,-38.1875,0.9994015381030621,-0.030029654131348883,-0.017090047066621313,-0.001647968824281341,101671.25,131072,0,
1594838245021542202,21.0,-71.0,962.0,-0.125,0.0,0.0,10.875,-5.0625,-39.0,0.9994015381030621,-0.030029654131348883,-0.017090047066621313,-0.001647968824281341,101671.25,131072,0,
1594838245054509010,21.0,-72.0,962.0,-0.125,0.0,0.0,10.5625,-3.5625,-38.1875,0.9994015381030621,-0.030029654131348883,-0.017090047066621313,-0.001647968824281341,101671.25,131072,0,
1594838245087399022,24.0,-71.0,959.0,-0.25,-0.125,0.0,10.5625,-3.5625,-38.1875,0.9994015381030621,-0.030029654131348883,-0.017090047066621313,-0.001647968824281341,101671.25,131072,0,
1594838245120594038,22.0,-69.0,962.0,-0.0625,-0.0625,0.125,11.6875,-4.6875,-39.75,0.9994015381030621,-0.030029654131348883,-0.017090047066621313,-0.001647968824281341,101671.25,131072,0,
1594838245154567630,23.0,-69.0,962.0,0.0,0.25,0.0625,10.5625,-4.6875,-37.75,0.9994015381030621,-0.030029654131348883,-0.017090047066621313,-0.001647968824281341,101671.25,131072,0,
1594838245187557687,22.0,-69.0,962.0,-0.25,0.0625,0.0625,10.5625,-4.6875,-37.75,0.9994015381030621,-0.030029654131348883,-0.017090047066621313,-0.001647968824281341,101671.25,131072,0,
1594838245221735810,24.0,-69.0,962.0,0.125,0.1875,0.1875,10.875,-4.6875,-37.375,0.9994015381030621,-0.030029654131348883,-0.017090047066621313,-0.001647968824281341,101671.25,131072,0,
1594838245253591501,23.0,-68.0,957.0,0.0,0.0625,0.0625,10.875,-4.6875,-37.375,0.9994015381030621,-0.030029654131348883,-0.017090047066621313,-0.001647968824281341,101671.25,131072,0,
1594838245289086652,22.0,-70.0,960.0,-0.0625,-0.0625,0.0,10.1875,-5.0625,-37.75,0.9994015381030621,-0.030029654131348883,-0.017090047066621313,-0.001647968824281341,101671.25,131072,0,
1594838245322419566,23.0,-68.0,962.0,0.125,0.3125,-0.0625,10.875,-3.875,-37.375,0.9994015381030621,-0.030029654131348883,-0.017090047066621313,-0.001647968824281341,101671.25,131072,0,
1594838245357840874,23.0,-69.0,961.0,-0.0625,0.0625,0.0,10.1875,-4.25,-38.5625,0.9994015381030621,-0.030029654131348883,-0.017090047066621313,-0.001647968824281341,101672.5,131072,0,
1594838245393073796,24.0,-70.0,962.0,-0.1875,0.0,0.0625,10.1875,-4.25,-38.5625,0.9994015381030621,-0.030029654131348883,-0.017090047066621313,-0.001647968824281341,101672.5,131072,0,
1594838245427961245,22.0,-68.0,959.0,0.0,0.1875,0.0,10.875,-4.6875,-37.75,0.9994015381030621,-0.030029654131348883,-0.017090047066621313,-0.001647968824281341,101672.5,131072,0,
1594838245462899973,23.0,-70.0,961.0,0.25,-0.0625,0.125,9.75,-5.375,-38.1875,0.9994015381030621,-0.030029654131348883,-0.017090047066621313,-0.001647968824281341,101672.5,131072,0,
1594838245498753032,23.0,-70.0,959.0,0.125,0.0625,0.125,9.75,-5.375,-38.1875,0.9994015381030621,-0.030029654131348883,-0.017090047066621313,-0.001647968824281341,101672.5,131072,0,
1594838245532460819,23.0,-68.0,961.0,0.125,0.0,0.0625,11.25,-4.25,-38.1875,0.9994015381030621,-0.030029654131348883,-0.017090047066621313,-0.001647968824281341,101672.5,131072,0,
1594838245566599237,23.0,-68.0,961.0,0.125,-0.0625,-0.0625,10.5625,-4.25,-37.375,0.9994015381030621,-0.030029654131348883,-0.017090047066621313,-0.001647968824281341,101672.5,131072,0,
1594838245602322277,22.0,-68.0,961.0,-0.125,0.0625,0.0,10.5625,-4.25,-37.375,0.9994015381030621,-0.030029654131348883,-0.017090047066621313,-0.001647968824281341,101672.5,131072,0,
1594838245635345900,22.0,-69.0,961.0,0.125,-0.25,0.0,10.5625,-5.375,-37.75,0.9994015381030621,-0.030029654131348883,-0.017090047066621313,-0.001647968824281341,101672.5,131072,0,
1594838245668856447,21.0,-68.0,962.0,0.125,-0.0625,-0.0625,9.75,-5.375,-38.5625,0.9994015381030621,-0.030029654131348883,-0.017090047066621313,-0.001647968824281341,101672.5,131072,0,
1594838245702380629,22.0,-72.0,961.0,-0.0625,0.0,0.0,9.75,-5.375,-38.5625,0.9994015381030621,-0.030029654131348883,-0.017090047066621313,-0.001647968824281341,101672.5,131072,0,
1594838245735045280,24.0,-68.0,962.0,-0.0625,-0.0625,0.0625,10.875,-4.6875,-38.1875,0.9994015381030621,-0.030029654131348883,-0.017090047066621313,-0.001647968824281341,101670.5,131072,0,
1594838245769346606,24.0,-72.0,962.0,0.0625,0.1875,0.0625,9.75,-4.25,-38.1875,0.9994015381030621,-0.030029654131348883,-0.017090047066621313,-0.001647968824281341,101670.5,131072,0,
1594838245803721602,22.0,-70.0,963.0,0.0,-0.125,0.0625,10.5625,-4.25,-38.1875,0.9994015381030621,-0.030029654131348883,-0.017090047066621313,-0.001647968824281341,101670.5,131072,0,
1594838245836431997,22.0,-68.0,962.0,-0.125,0.125,0.0,10.5625,-4.25,-38.5625,0.9994015381030621,-0.030029654131348883,-0.017090047066621313,-0.001647968824281341,101670.5,131072,0,
1594838245864843140,23.0,-68.0,960.0,-0.125,0.0,0.0,10.5625,-4.6875,-37.375,0.9994015381030621,-0.030029654131348883,-0.017090047066621313,-0.001647968824281341,101670.5,131072,0,
1594838245889571014,21.0,-67.0,959.0,0.0625,0.1875,0.0,10.5625,-4.6875,-37.375,0.9994015381030621,-0.030029654131348883,-0.017090047066621313,-0.001647968824281341,101670.5,131072,0,
1594838245918396306,24.0,-69.0,960.0,-0.1875,0.0625,0.125,10.875,-5.0625,-38.5625,0.9994015381030621,-0.030029654131348883,-0.017090047066621313,-0.001647968824281341,101670.5, , ,
1594838245942907362,23.0,-70.0,959.0,0.0,-0.0625,0.0,10.875,-5.0625,-38.5625,0.9994015381030621,-0.030029654131348883,-0.017090047066621313,-0.001647968824281341,101670.5,131072,0,
1594838245968408361,22.0,-71.0,960.0,0.0,0.3125,-0.0625,10.875,-6.0625,-39.0,0.9994015381030621,-0.030029654131348883,-0.017090047066621313,-0.001647968824281341,101670.5,131072,0,
1594838245994159067,22.0,-72.0,962.0,-0.0625,-0.0625,0.0,10.875,-6.0625,-39.0,0.9994015381030621,-0.030029654131348883,-0.017090047066621313,-0.001647968824281341,101670.5,131072,0,
1594838246018719636,22.0,-69.0,961.0,0.125,0.0,0.0625,11.25,-4.25,-39.0,0.9994015381030621,-0.030029654131348883,-0.017090047066621313,-0.001647968824281341,101670.5,131072,0,
1594838246043141068,24.0,-69.0,960.0,-0.125,0.3125,-0.0625,11.25,-4.25,-39.0,0.9994015381030621,-0.030029654131348883,-0.017090047066621313,-0.001647968824281341,101670.5,131072,0,
1594838246068228292,23.0,-69.0,962.0,-0.125,0.125,-0.0625,10.875,-4.25,-38.5625,0.9994015381030621,-0.030029654131348883,-0.017090047066621313,-0.001647968824281341,101670.5,131072,0,
1594838246093426447,23.0,-69.0,960.0,0.125,-0.0625,0.125,10.875,-4.25,-38.5625,0.9994015381030621,-0.030029654131348883,-0.017090047066621313,-0.001647968824281341,101668.0,131072,0,
1594838246119650787,22.0,-70.0,962.0,0.0,-0.125,0.0625,11.25,-5.75,-38.1875,0.9994015381030621,-0.030029654131348883,-0.017090047066621313,-0.001647968824281341,101668.0,131072,0,
1594838246145564643,23.0,-69.0,960.0,-0.1875,0.0625,0.0,11.25,-5.75,-38.1875,0.9994015381030621,-0.030029654131348883,-0.017090047066621313,-0.001647968824281341,101668.0,131072,0,
1594838246170687347,22.0,-71.0,960.0,-0.125,-0.0625,0.0625,10.5625,-5.0625,-38.5625,0.9994015381030621,-0.030029654131348883,-0.017090047066621313,-0.001647968824281341,101668.0,131072,0,
1594838246195512430,24.0,-69.0,958.0,-0.0625,0.0,0.0,10.5625,-5.0625,-38.5625,0.9994015381030621,-0.030029654131348883,-0.017090047066621313,-0.001647968824281341,101668.0,131072,0,
1594838246220605934,24.0,-70.0,961.0,0.0,0.1875,0.0,10.875,-5.0625,-38.5625,0.9994015381030621,-0.030029654131348883,-0.017090047066621313,-0.001647968824281341,101668.0,131072,0,
1594838246245407832,23.0,-67.0,962.0,0.0625,0.1875,-0.0625,10.875,-5.0625,-38.5625,0.9994015381030621,-0.030029654131348883,-0.017090047066621313,-0.001647968824281341,101668.0,131072,0,
1594838246270455062,24.0,-67.0,960.0,0.0,0.125,0.0,12.0,-5.75,-37.375,0.9994015381030621,-0.030029654131348883,-0.017090047066621313,-0.001647968824281341,101668.0,131072,0,
1594838246296450075,25.0,-69.0,962.0,0.125,0.0625,-0.0625,12.0,-5.75,-37.375,0.9994015381030621,-0.030029654131348883,-0.017090047066621313,-0.001647968824281341,101668.0,131072,0,
1594838246325867848,23.0,-70.0,961.0,0.1875,0.125,0.0,11.25,-5.375,-38.5625,0.9994015381030621,-0.030029654131348883,-0.017090047066621313,-0.001647968824281341,101668.0,131072,0,
1594838246360981101,23.0,-70.0,961.0,0.0,0.0625,-0.125,10.5625,-4.25,-37.75,0.9994015381030621,-0.030029654131348883,-0.017090047066621313,-0.001647968824281341,101668.0,131072,0,
1594838246395765028,24.0,-69.0,962.0,0.0,-0.1875,0.0,10.5625,-4.25,-37.75,0.9994015381030621,-0.030029654131348883,-0.017090047066621313,-0.001647968824281341,101668.0,131072,0,
1594838246430074426,25.0,-70.0,961.0,0.0625,-0.375,-0.0625,10.875,-4.6875,-38.1875,0.9994015381030621,-0.030029654131348883,-0.017090047066621313,-0.001647968824281341,101668.0,131072,0,
1594838246458704143,22.0,-68.0,958.0,-0.1875,0.0625,0.0625,11.6875,-4.6875,-38.5625,0.9994015381030621,-0.030029654131348883,-0.017090047066621313,-0.001647968824281341,101668.0,131072,0,
1594838246490978682,24.0,-68.0,963.0,0.0625,0.0625,-0.0625,11.6875,-4.6875,-38.5625,0.9994015381030621,-0.030029654131348883,-0.017090047066621313,-0.001647968824281341,101675.0,131072,0,
1594838246526727226,24.0,-69.0,960.0,0.1875,0.0625,0.0,11.6875,-5.0625,-38.1875,0.9994015381030621,-0.030029654131348883,-0.017090047066621313,-0.001647968824281341,101675.0,131072,0,
1594838246557615968,25.0,-68.0,960.0,0.0,0.25,0.0,11.6875,-5.0625,-38.1875,0.9994015381030621,-0.030029654131348883,-0.017090047066621313,-0.001647968824281341,101675.0,131072,0,
1594838246589845014,23.0,-70.0,961.0,0.125,0.0,0.0,11.25,-5.375,-38.1875,0.9994015381030621,-0.030029654131348883,-0.017090047066621313,-0.001647968824281341,101675.0,131072,0,
1594838246623656712,22.0,-69.0,963.0,-0.125,0.0625,0.0625,11.25,-5.375,-37.75,0.9994015381030621,-0.030029654131348883,-0.017090047066621313,-0.001647968824281341,101675.0,131072,0,
1594838246656340926,25.0,-69.0,961.0,0.0625,0.0625,-0.0625,11.25,-5.375,-37.75,0.9994015381030621,-0.030029654131348883,-0.017090047066621313,-0.001647968824281341,101675.0,131072,0,
1594838246692244437,22.0,-69.0,960.0,0.1875,0.125,-0.0625,10.875,-5.0625,-38.5625,0.9994015381030621,-0.030029654131348883,-0.017090047066621313,-0.001647968824281341,101675.0,131072,0,
1594838246726437076,23.0,-69.0,961.0,-0.0625,-0.125,-0.0625,11.6875,-5.375,-37.75,0.9994015381030621,-0.030029654131348883,-0.017090047066621313,-0.001647968824281341,101675.0,131072,0,
1594838246761109323,25.0,-69.0,959.0,-0.125,-0.0625,0.0625,11.6875,-5.375,-37.75,0.9994015381030621,-0.030029654131348883,-0.017090047066621313,-0.001647968824281341,101675.0,131072,0,
1594838246794880704,23.0,-69.0,960.0,0.0625,-0.0625,0.0,11.25,-5.0625,-38.1875,0.9994015381030621,-0.030029654131348883,-0.017090047066621313,-0.001647968824281341,101675.0,131072,0,
1594838246827342540,22.0,-69.0,960.0,0.0,0.0625,0.0,10.1875,-4.25,-37.75,0.9994015381030621,-0.030029654131348883,-0.017090047066621313,-0.001647968824281341,101675.0,131072,0,
1594838246860184881,20.0,-69.0,960.0,0.0625,0.0625,0.0625,10.1875,-4.25,-37.75,0.9994015381030621,-0.030029654131348883,-0.017090047066621313,-0.001647968824281341,101673.5,131072,0,
1594838246892595336,22.0,-68.0,961.0,-0.0625,-0.125,0.0,11.25,-4.25,-39.0,0.9994015381030621,-0.030029654131348883,-0.017090047066621313,-0.001647968824281341,101673.5,1048576,0,
1594838246925478519,24.0,-69.0,964.0,0.1875,0.1875,0.0625,10.875,-5.0625,-37.75,0.9994015381030621,-0.030029654131348883,-0.017090047066621313,-0.001647968824281341,101673.5,131072,0,
1594838246964936416,23.0,-69.0,959.0,0.0625,-0.0625,0.0,11.25,-5.0625,-37.75,0.9994015381030621,-0.030029654131348883,-0.017090047066621313,-0.001647968824281341,101673.5,131072,0,
1594838247000468075,22.0,-70.0,958.0,0.3125,0.0625,-0.0625,11.25,-5.0625,-37.75,0.9994015381030621,-0.030029654131348883,-0.017090047066621313,-0.001647968824281341,101673.5,131072,0,
1594838247034487940,22.0,-69.0,962.0,0.1875,-0.1875,0.125,10.875,-4.6875,-38.5625,0.9994015381030621,-0.030029654131348883,-0.017090047066621313,-0.001647968824281341,101673.5,131072,0,
