Timestamp (ns),Accel_x (g), Accel_y (g), Accel_z (g),Gyro_x (rad/s), Gyro_y (rad/s), Gyro_z (rad/s),Mag_x (uT), Mag_y (uT), Mag_z (uT),Roll (rad), Pitch (rad), Yaw(rad),Pressure (mbar),Temperature (C),
1.5946575304713208e+18,0.0058187018148601055,0.027921147644519806,0.9940394163131714,0.0014331347774714231,-0.0007904823869466782,0.004357144236564636,
1.5946575304767406e+18,0.0053338101133704185,0.028892317786812782,0.9933083653450012,0.000815359759144485,0.00012475857511162758,0.004320528358221054,
1.5946575304810084e+18,0.00630359398201108,0.028892317786812782,0.9935520887374878,0.0020199718419462442,0.0019409055821597576,0.0009526945650577545,
1.5946575304851776e+18,0.007273377384990454,0.030349070206284523,0.9945268034934998,0.00018580141477286816,0.0007131318561732769,-0.0008725039660930634,
1.594657530489267e+18,0.0053338101133704185,0.02622159756720066,0.9952579140663147,-0.0019358214922249317,0.0010100053623318672,-0.0008651725947856903,
1.5946575304935982e+18,0.00630359398201108,0.028649523854255676,0.9952579140663147,0.00020050746388733387,-0.0005128118209540844,0.0003535635769367218,
1.5946575304979098e+18,0.006061147898435593,0.02840672992169857,0.9937956929206848,0.0029246164485812187,-0.002022832166403532,-0.0020723380148410797,
1.5946575305019766e+18,0.0058187018148601055,0.028163937851786613,0.9940394163131714,-0.0007343518082052469,0.0007199598476290703,6.514042615890503e-05,
1.5946575305062817e+18,0.004364026710391045,0.027921147644519806,0.9933083653450012,-0.0013339126016944647,0.00010817777365446091,0.0015789195895195007,
1.5946575305106002e+18,0.004364026710391045,0.028892317786812782,0.9920898675918579,-0.0013227032031863928,0.0019244644790887833,0.0030799806118011475,
1.5946575305147075e+18,0.0033942428417503834,0.02840672992169857,0.9928209781646729,-0.0031287840101867914,0.00039396248757839203,0.001539766788482666,
1.5946575305190362e+18,0.0046064723283052444,0.02694997750222683,0.9937956929206848,-0.0006795637309551239,-0.001729409210383892,0.000618230551481247,
1.5946575305231217e+18,0.0041215806268155575,0.026464389637112617,0.9957453608512878,-0.0003709872253239155,-0.0005034124478697777,0.0006130337715148926,
1.5946575305278717e+18,0.003879134776070714,0.02913510985672474,0.9979385733604431,0.0008435941999778152,-0.00019631581380963326,0.0003050193190574646,
1.5946575305319043e+18,0.0053338101133704185,0.028892317786812782,0.9974511861801147,0.0017451031599193811,0.001016797497868538,-4.0978193283081055e-07,
1.5946575305358285e+18,0.004848918411880732,0.02694997750222683,0.9935520887374878,-0.0016010873951017857,0.0031283143907785416,-0.0021204687654972076,
1.5946575305400878e+18,0.005576256196945906,0.0276783537119627,0.9908714294433594,-0.002193364780396223,7.336679846048355e-05,-0.0002854540944099426,
1.5946575305442883e+18,0.0033942428417503834,0.02913510985672474,0.9930647015571594,-0.00035773729905486107,-0.0026530432514846325,0.0027456022799015045,
1.5946575305484634e+18,0.005091364029794931,0.028649523854255676,0.9928209781646729,0.0005538667319342494,-0.0032364805229008198,0.0009053312242031097,
1.5946575305526052e+18,0.0046064723283052444,0.026464389637112617,0.9933083653450012,-0.001570849446579814,-0.0023006852716207504,0.00029199570417404175,
1.5946575305569508e+18,0.005091364029794931,0.02694997750222683,0.9923335909843445,-4.331907257437706e-05,0.00014157546684145927,-1.3325363397598267e-05,
1.5946575305611077e+18,0.004364026710391045,0.02840672992169857,0.9947705268859863,-0.0015572849661111832,0.0025633135810494423,-1.321360468864441e-05,
1.5946575305654413e+18,0.004848918411880732,0.028163937851786613,0.9959890246391296,-0.0015441984869539738,0.0004217107780277729,-0.0018302984535694122,
1.594657530569578e+18,0.004848918411880732,0.029377900063991547,0.9964764714241028,-0.0021369538735598326,-0.002004760317504406,-0.001814916729927063,
1.5946575305739154e+18,0.0041215806268155575,0.02913510985672474,0.9937956929206848,-0.0030275944154709578,-0.0001707174815237522,0.0003203973174095154,
1.594657530578069e+18,0.003636688692495227,0.0276783537119627,0.9937956929206848,-0.0008820905350148678,0.00043644849210977554,0.0021348968148231506,
1.5946575305823956e+18,0.006788485683500767,0.027921147644519806,0.9935520887374878,0.001548249740153551,-0.00047581689432263374,0.00029976293444633484,
1.5946575305865285e+18,0.0053338101133704185,0.029377900063991547,0.9911150336265564,0.0006266412092372775,-0.0016832822002470493,0.0002972446382045746,
1.594657530590858e+18,0.004848918411880732,0.0276783537119627,0.9928209781646729,0.0009242411470040679,0.00045092450454831123,0.0009004771709442139,
1.5946575305950103e+18,0.005576256196945906,0.027921147644519806,0.9937956929206848,-0.0024150509852916002,0.0022643310949206352,0.0005900450050830841,
1.5946575305991665e+18,0.0053338101133704185,0.02913510985672474,0.9945268034934998,-0.0002746949903666973,-0.0007833568379282951,0.0011908188462257385,
1.5946575306034995e+18,0.004848918411880732,0.028163937851786613,0.9962327480316162,0.0009390771156176925,-0.000473907683044672,0.0011808127164840698,
1.5946575306076646e+18,0.006061147898435593,0.02840672992169857,0.9957453608512878,0.0012340516550466418,0.0007415385916829109,0.0026852190494537354,
1.5946575306119951e+18,0.005576256196945906,0.028163937851786613,0.9950142502784729,-0.0002906483132392168,0.001341039314866066,0.0026626549661159515,
1.5946575306161592e+18,0.005091364029794931,0.02840672992169857,0.9935520887374878,-0.0005910717882215977,0.0007240376435220242,0.0014288164675235748,
1.5946575306203177e+18,0.003879134776070714,0.029620693996548653,0.9918461441993713,0.0006253590108826756,0.0007179533131420612,0.0011139437556266785,
1.5946575306246835e+18,0.007030931767076254,0.027435559779405594,0.9920898675918579,0.0006201037904247642,-0.00019667763262987137,0.0008017159998416901,
1.5946575306288335e+18,0.005091364029794931,0.027435559779405594,0.9928209781646729,0.0015234907623380423,0.0007135728374123573,0.0010978467762470245,
1.594657530633142e+18,0.005576256196945906,0.02694997750222683,0.9945268034934998,0.0006020903820171952,0.0019190399907529354,0.00169435515999794,
1.5946575306371594e+18,0.006061147898435593,0.027435559779405594,0.9959890246391296,-0.0021287628915160894,-0.0020343437790870667,0.002285849303007126,
1.5946575306414108e+18,0.003636688692495227,0.027192767709493637,0.9937956929206848,9.18773002922535e-06,-0.0017143823206424713,0.0010551773011684418,
1.594657530645683e+18,0.007273377384990454,0.02694997750222683,0.9950142502784729,-0.0005966213066130877,-0.0023057074286043644,-0.00016514956951141357,
1.5946575306499377e+18,0.0041215806268155575,0.027921147644519806,0.9945268034934998,0.00092272215988487,0.0007423274219036102,0.00013910606503486633,
1.5946575306541832e+18,0.0041215806268155575,0.028649523854255676,0.9957453608512878,0.0009149682009592652,0.00043322332203388214,0.00044079869985580444,
1.594657530658435e+18,0.0033942428417503834,0.02840672992169857,0.9906277060508728,-0.0012127822265028954,0.002852511126548052,0.0013456940650939941,
1.5946575306625106e+18,0.003636688692495227,0.029620693996548653,0.9923335909843445,-0.0024140544701367617,0.0031314054504036903,0.00042578577995300293,
1.594657530666776e+18,0.006788485683500767,0.0276783537119627,0.9937956929206848,0.0006348910974338651,0.005830884911119938,0.001633673906326294,
1.5946575306710351e+18,0.0053338101133704185,0.027435559779405594,0.9969637989997864,0.0012352877529338002,0.002450360916554928,0.0013170801103115082,
1.5946575306752858e+18,0.003636688692495227,0.029620693996548653,0.9933083653450012,0.00031630927696824074,-0.000296024139970541,9.455159306526184e-05,
1.5946575306795392e+18,0.007030931767076254,0.028163937851786613,0.9955016374588013,-0.001200678525492549,0.0012207934632897377,0.0003966204822063446,
1.5946575306837934e+18,0.007273377384990454,0.02622159756720066,0.9935520887374878,-0.002402052516117692,0.002421998418867588,0.0019076168537139893,
1.5946575306880479e+18,0.006061147898435593,0.02986348792910576,0.9925772547721863,0.0012525242054834962,-0.0003241482190787792,0.0034059174358844757,
1.5946575306921167e+18,0.0053338101133704185,0.02986348792910576,0.9933083653450012,-0.0002723310608416796,0.0008900393731892109,0.003074429929256439,
1.5946575306965087e+18,0.005576256196945906,0.028649523854255676,0.9911150336265564,-0.0002700425684452057,0.000882559921592474,0.0018371306359767914,
1.5946575307006792e+18,0.0053338101133704185,0.026464389637112617,0.9911150336265564,0.0003379585687071085,-0.0009420528076589108,-0.0002983659505844116,
1.5946575307049638e+18,0.0033942428417503834,0.026707183569669724,0.9937956929206848,-0.0005734791047871113,-0.0009341365657746792,-0.000901591032743454,
1.5946575307090493e+18,0.002424459205940366,0.027192767709493637,0.9976949095726013,0.0009456697152927518,-0.0015320186503231525,0.0009231790900230408,
1.5946575307132987e+18,0.006788485683500767,0.02986348792910576,0.9986696839332581,0.001846320927143097,-0.0024277418851852417,6.8247318267822266e-06,
1.59465753071755e+18,0.00654603959992528,0.027921147644519806,0.9947705268859863,0.0012250737054273486,1.558661460876465e-05,0.0006124973297119141,
1.594657530721773e+18,0.00654603959992528,0.02913510985672474,0.9930647015571594,0.0018205109518021345,0.0006211875006556511,0.0018188133835792542,
1.5946575307260037e+18,0.0041215806268155575,0.027921147644519806,0.9928209781646729,-0.0003148491960018873,-0.0008983626030385494,0.0005920641124248505,
1.5946575307302584e+18,0.00315179699100554,0.02913510985672474,0.991358757019043,0.000596394413150847,-0.0005879472009837627,0.0014956854283809662,
1.5946575307345441e+18,0.007030931767076254,0.028892317786812782,0.9933083653450012,-0.0012258130591362715,0.0015370547771453857,0.001180250197649002,
1.5946575307388045e+18,0.0053338101133704185,0.028892317786812782,0.9920898675918579,-0.001821243902668357,0.00031267479062080383,0.0002617351710796356,
1.5946575307437604e+18,0.0033942428417503834,0.026707183569669724,0.9940394163131714,-0.001805939245969057,-0.0015071481466293335,-0.0003461912274360657,
1.5946575307473894e+18,0.005091364029794931,0.02694997750222683,0.9972074627876282,-0.002699361415579915,0.0009284447878599167,-0.0012518800795078278,
1.5946575307515064e+18,0.006061147898435593,0.0276783537119627,0.9974511861801147,-0.001768079586327076,0.0009206426329910755,-0.0006356276571750641,
1.5946575307556518e+18,0.0058187018148601055,0.028163937851786613,0.9937956929206848,6.397371180355549e-05,4.308298230171204e-06,0.0017926394939422607,
1.5946575307599153e+18,0.0046064723283052444,0.02840672992169857,0.9901403188705444,0.002789229853078723,-0.0021157898008823395,0.0011718422174453735,
1.5946575307641244e+18,0.006061147898435593,0.029620693996548653,0.991358757019043,-0.0008686005603522062,-0.0011894120834767818,-0.0003523305058479309,
1.594657530768333e+18,0.0058187018148601055,0.030106279999017715,0.9889218211174011,-0.0005584354512393475,0.0015463759191334248,-0.0006522350013256073,
1.5946575307725404e+18,0.005091364029794931,0.02913510985672474,0.991358757019043,-0.00025087688118219376,0.003956309519708157,0.0005647055804729462,
1.5946575307767793e+18,0.0058187018148601055,0.027192767709493637,0.9937956929206848,-0.0011573664378374815,0.0024087331257760525,0.0002570934593677521,
1.5946575307809958e+18,0.0058187018148601055,0.028649523854255676,0.9940394163131714,-0.0017533726058900356,0.002085625659674406,0.0017692632973194122,
1.5946575307852004e+18,0.005576256196945906,0.027921147644519806,0.9984260201454163,-0.0008300405461341143,-5.196221172809601e-05,-0.0003656633198261261,
1.5946575307895862e+18,0.003879134776070714,0.027921147644519806,0.9969637989997864,-0.0005201995372772217,0.0014628036879003048,0.0014546029269695282,
1.5946575307938004e+18,0.005091364029794931,0.027921147644519806,0.994283139705658,-0.00021296227350831032,0.001147645991295576,0.0029567107558250427,
1.5946575307980255e+18,0.007515823468565941,0.030349070206284523,0.9930647015571594,-0.0014226366765797138,0.0017437334172427654,0.0017203986644744873,
1.594657530802248e+18,0.004848918411880732,0.028649523854255676,0.9923335909843445,0.002526575932279229,-8.811522275209427e-05,-0.0001112520694732666,
1.5946575308064814e+18,0.004848918411880732,0.030106279999017715,0.9916024804115295,0.0003852823283523321,-0.0006931065581738949,-0.0007160492241382599,
1.5946575308107095e+18,0.004848918411880732,0.027921147644519806,0.9933083653450012,7.917871698737144e-05,-0.0006872820667922497,0.001410026103258133,
1.5946575308149281e+18,0.005091364029794931,0.027192767709493637,0.9911150336265564,-0.0011329504195600748,-0.0003786403685808182,0.00260964035987854,
1.5946575308191506e+18,0.0058187018148601055,0.028163937851786613,0.9955016374588013,8.803396485745907e-05,0.0011388715356588364,0.0010733790695667267,
1.5946575308233846e+18,0.0033942428417503834,0.028163937851786613,0.9933083653450012,-0.0005184377077966928,0.002037898637354374,0.001367226243019104,
1.5946575308276122e+18,0.00315179699100554,0.028649523854255676,0.9974511861801147,0.001908846665173769,0.001112175639718771,0.0010528713464736938,
1.5946575308318362e+18,0.00630359398201108,0.028892317786812782,0.9950142502784729,0.001287073944695294,-0.0016229646280407906,-0.0004703029990196228,
1.594657530836085e+18,0.004848918411880732,0.027921147644519806,0.9928209781646729,0.0015791242476552725,-9.499629959464073e-05,0.001047976315021515,
1.5946575308403302e+18,0.006061147898435593,0.029377900063991547,0.9923335909843445,-0.0005542074795812368,0.00020866747945547104,0.0013420358300209045,
1.5946575308445555e+18,0.005576256196945906,0.026707183569669724,0.9920898675918579,-0.001155282137915492,-9.595183655619621e-05,0.0004221610724925995,
1.59465753084878e+18,0.006788485683500767,0.027921147644519806,0.9947705268859863,0.0021859516855329275,0.0017220498993992805,0.0007214806973934174,
1.5946575308530092e+18,0.0058187018148601055,0.028649523854255676,0.9974511861801147,0.0009561184560880065,0.002616177313029766,0.0010182857513427734,
1.594657530857238e+18,0.005576256196945906,0.027435559779405594,0.9950142502784729,-0.0014748440589755774,0.0004741302691400051,0.0007068626582622528,
1.594657530861456e+18,0.0046064723283052444,0.028649523854255676,0.9916024804115295,-0.0017653161194175482,0.0004701460711658001,-0.0005105398595333099,
1.5946575308656778e+18,0.00654603959992528,0.0276783537119627,0.9940394163131714,-0.00023615197278559208,0.0028891228139400482,0.001613810658454895,
1.594657530869901e+18,0.004848918411880732,0.02840672992169857,0.9920898675918579,0.002491626190021634,0.0028648441657423973,0.002205982804298401,
1.5946575308741194e+18,0.0046064723283052444,0.029620693996548653,0.9920898675918579,0.0015620903577655554,-0.0001878892071545124,0.0009759813547134399,
1.5946575308783414e+18,0.0041215806268155575,0.029377900063991547,0.9923335909843445,-0.0008739640470594168,0.00011655502021312714,0.0009677782654762268,
1.5946575308825577e+18,0.004848918411880732,0.027921147644519806,0.9928209781646729,0.0006477100541815162,0.002235637977719307,0.001262512058019638,
1.5946575308867745e+18,0.005576256196945906,0.0276783537119627,0.9935520887374878,0.0033680605702102184,-0.0011146748438477516,-0.0005652904510498047,
1.5946575308910036e+18,0.004364026710391045,0.0276783537119627,0.9947705268859863,0.001522562000900507,0.0016204854473471642,0.0006509199738502502,
1.5946575308952358e+18,0.004848918411880732,0.02913510985672474,0.9952579140663147,-0.0003074284177273512,0.002818332053720951,-0.0005660094320774078,
1.594657530899489e+18,0.005091364029794931,0.02840672992169857,0.9969637989997864,-0.002424906473606825,-0.0017483406700193882,-0.00207558274269104,
1.594657530903736e+18,0.0058187018148601055,0.027435559779405594,0.9928209781646729,0.0009269962320104241,-0.0035508442670106888,0.0003647841513156891,
1.5946575309079872e+18,0.00654603959992528,0.02840672992169857,0.9928209781646729,-0.0018065872136503458,-0.0014009433798491955,0.0006645843386650085,
1.5946575309122342e+18,0.005576256196945906,0.030106279999017715,0.9937956929206848,2.5789719074964523e-05,0.0013366220518946648,0.0012647323310375214,
1.5946575309164923e+18,0.005091364029794931,0.026464389637112617,0.9925772547721863,-0.0014887568540871143,0.001022525131702423,-0.0008659549057483673,
1.5946575309207304e+18,0.0058187018148601055,0.028892317786812782,0.9918461441993713,3.808364272117615e-05,-0.0005003977566957474,4.9915164709091187e-05,
1.5946575309249667e+18,0.004848918411880732,0.026707183569669724,0.9933083653450012,-0.0005679682362824678,-0.001404790673404932,0.0012609586119651794,
1.594657530929169e+18,0.005091364029794931,0.0276783537119627,0.9964764714241028,-0.0005631954409182072,-0.0016958517953753471,0.0012503638863563538,
1.5946575309333286e+18,0.0021820133551955223,0.02913510985672474,0.994283139705658,0.001258733100257814,-0.0028930646367371082,0.00033125653862953186,
1.594657530937573e+18,0.0053338101133704185,0.027435559779405594,0.9937956929206848,-0.0020833699963986874,0.00015990622341632843,0.0018428042531013489,
1.5946575309418276e+18,0.00630359398201108,0.0276783537119627,0.9935520887374878,-0.0011572646908462048,-0.0004471689462661743,0.00031298771500587463,
1.5946575309461038e+18,0.00630359398201108,0.028163937851786613,0.994283139705658,6.392388604581356e-05,-0.0010491437278687954,0.0003103576600551605,
1.59465753095035e+18,0.0033942428417503834,0.028649523854255676,0.9920898675918579,-0.0011480769608169794,0.001382600050419569,0.0024278126657009125,
1.5946575309545743e+18,0.006788485683500767,0.028649523854255676,0.9969637989997864,0.0006787664024159312,0.000765250064432621,-1.5519559383392334e-05,
1.5946575309586988e+18,0.00630359398201108,0.028649523854255676,0.9967200756072998,-0.0026584630832076073,0.0007588192820549011,0.0005903430283069611,
1.594657530962954e+18,0.00315179699100554,0.027921147644519806,0.9947705268859863,-0.00021319533698260784,0.0010553086176514626,0.0002825148403644562,
1.5946575309672983e+18,0.005091364029794931,0.030349070206284523,0.9930647015571594,-0.0008171356748789549,-0.0004678894765675068,-0.00093131884932518,
1.5946575309715028e+18,0.007273377384990454,0.02986348792910576,0.9933083653450012,-0.0017188668716698885,0.0007475060410797596,0.0014994330704212189,
1.5946575309757166e+18,0.00630359398201108,0.02840672992169857,0.9937956929206848,0.0022328346967697144,0.003164151683449745,0.0014868341386318207,
1.5946575309799631e+18,0.0053338101133704185,0.027921147644519806,0.9945268034934998,0.00312266917899251,-0.00019396329298615456,0.002685803920030594,
1.594657530984172e+18,0.005091364029794931,0.027435559779405594,0.9930647015571594,6.776861846446991e-05,-0.0038267248310148716,0.0005431696772575378,
1.5946575309884516e+18,0.0029093509074300528,0.02913510985672474,0.9918461441993713,-0.002052862662822008,-0.0001601758413016796,0.000538606196641922,
1.5946575309926787e+18,0.0041215806268155575,0.02622159756720066,0.9964764714241028,-0.0011270137038081884,-0.0007645618170499802,-7.165223360061646e-05,
1.5946575309969567e+18,0.005576256196945906,0.028649523854255676,0.9989133477210999,0.00039678672328591347,-0.001969600562006235,0.001746147871017456,
1.594657531001036e+18,0.005091364029794931,0.027921147644519806,0.9991570711135864,-0.0008180113509297371,-0.0022559156641364098,0.0017314739525318146,
1.594657531005278e+18,0.00654603959992528,0.029377900063991547,0.9950142502784729,-0.0005082713905721903,-0.0016312263906002045,0.0023226551711559296,
1.594657531009524e+18,0.007273377384990454,0.028163937851786613,0.9937956929206848,0.00010173162445425987,0.0005025430582463741,0.0007888078689575195,
1.5946575310137605e+18,0.0053338101133704185,0.027435559779405594,0.9930647015571594,0.0010094746248796582,0.0014069173485040665,0.0007821805775165558,
1.5946575310179884e+18,0.0046064723283052444,0.02913510985672474,0.9930647015571594,0.0022124554961919785,0.0007893629372119904,0.00016987696290016174,
1.5946575310222126e+18,0.004364026710391045,0.028892317786812782,0.991358757019043,-0.0005319302435964346,0.000479863490909338,0.00016845017671585083,
1.594657531026456e+18,0.005576256196945906,0.02840672992169857,0.9906277060508728,-0.001738924067467451,0.0010815635323524475,-0.0010444261133670807,
1.5946575310306995e+18,0.004364026710391045,0.027921147644519806,0.994283139705658,-0.001118579413741827,0.0016782060265541077,-0.0025499798357486725,
1.594657531035465e+18,0.003636688692495227,0.02913510985672474,0.9959890246391296,-0.0014120456762611866,0.0037841657176613808,-0.0007113553583621979,
1.594657531039102e+18,0.0046064723283052444,0.029377900063991547,0.9950142502784729,0.0004170159809291363,0.001329437829554081,0.0011118166148662567,
1.5946575310439496e+18,0.0058187018148601055,0.028649523854255676,0.9950142502784729,-0.0011008179280906916,0.00040966831147670746,0.0023139379918575287,
1.594657531047687e+18,0.0058187018148601055,0.027921147644519806,0.9925772547721863,0.0007256284588947892,-0.00019950652495026588,0.002597358077764511,
1.5946575310520707e+18,0.00654603959992528,0.028163937851786613,0.9933083653450012,0.0028395922854542732,0.00010503549128770828,0.0007583349943161011,
1.594657531056289e+18,0.007758269552141428,0.028163937851786613,0.9908714294433594,0.0006956685101613402,0.00010415259748697281,-0.0007623657584190369,
1.5946575310603556e+18,0.00630359398201108,0.028649523854255676,0.990384042263031,-0.002641703002154827,0.002526205964386463,-0.0013616904616355896,
1.5946575310646095e+18,0.00630359398201108,0.027435559779405594,0.9918461441993713,-0.0032252357341349125,0.0009906478226184845,-0.0007445141673088074,
1.594657531068881e+18,0.006788485683500767,0.02694997750222683,0.9937956929206848,-0.0013809374067932367,0.0018909210339188576,-0.0007382594048976898,
1.5946575310729772e+18,0.003879134776070714,0.02913510985672474,0.9962327480316162,-0.000763600692152977,0.003086494281888008,-0.0007320567965507507,
1.5946575310772447e+18,0.003636688692495227,0.030834658071398735,0.9959890246391296,0.0007571458118036389,0.0015462273731827736,0.00018268823623657227,
1.594657531081483e+18,0.004848918411880732,0.0276783537119627,0.9959890246391296,-0.0007635464426130056,0.0006246361881494522,0.0013926178216934204,
1.5946575310857503e+18,0.0058187018148601055,0.025736013427376747,0.9979385733604431,-0.00045426422730088234,-0.0021064067259430885,-0.00013341382145881653,
1.5946575310900447e+18,0.005091364029794931,0.028163937851786613,0.9972074627876282,0.0004581508692353964,0.0012428192421793938,-0.0022523514926433563,
1.5946575310941368e+18,0.00315179699100554,0.02986348792910576,0.9923335909843445,-0.0007571629248559475,0.003958169370889664,-0.00011336430907249451,
1.594657531098293e+18,0.0033942428417503834,0.0276783537119627,0.9930647015571594,-0.0004479342605918646,0.0021077124401926994,-0.0010210052132606506,
1.5946575311025436e+18,0.0046064723283052444,0.027435559779405594,0.9945268034934998,0.00046442775055766106,0.0005756709724664688,-0.0013152919709682465,
1.5946575311074445e+18,0.0041215806268155575,0.0276783537119627,0.9959890246391296,0.0007633910281583667,0.002388029359281063,-0.0031214356422424316,
1.5946575311111204e+18,0.00630359398201108,0.030349070206284523,0.9952579140663147,0.0019684399012476206,0.0020650960505008698,-0.0012780092656612396,
1.5946575311153544e+18,0.0053338101133704185,0.0276783537119627,0.9984260201454163,0.00043756840750575066,-0.00037518562749028206,0.0002470575273036957,
1.594657531119583e+18,0.007030931767076254,0.028163937851786613,0.9972074627876282,-0.00047470652498304844,-6.916746497154236e-05,0.0017593130469322205,
1.5946575311238031e+18,0.005091364029794931,0.028163937851786613,0.9937956929206848,0.00013501453213393688,-0.0021886471658945084,0.0023502595722675323,
1.5946575311280463e+18,0.003879134776070714,0.0276783537119627,0.9933083653450012,-0.000471852021291852,-0.0030788532458245754,0.0014219097793102264,
1.5946575311322964e+18,0.0053338101133704185,0.028163937851786613,0.9957453608512878,0.0013493088772520423,-0.0009329188615083694,-0.0007100999355316162,
1.5946575311365281e+18,0.00654603959992528,0.02622159756720066,0.9930647015571594,0.00012650620192289352,0.0008921166881918907,-0.0004012659192085266,
1.594657531140807e+18,0.0058187018148601055,0.02840672992169857,0.9955016374588013,-0.0013888867106288671,0.001793217845261097,-0.0022150911390781403,
1.5946575311449098e+18,0.005091364029794931,0.027921147644519806,0.9964764714241028,-0.001377215376123786,-0.0009476449340581894,-0.0012878775596618652,
1.5946575311492096e+18,0.0041215806268155575,0.02986348792910576,0.9974511861801147,0.0007544198306277394,-0.002756877336651087,0.00023727118968963623,
1.594657531153334e+18,0.0053338101133704185,0.0276783537119627,0.9989133477210999,0.0013538120547309518,-0.0024308450520038605,0.0002352781593799591,
1.5946575311576223e+18,0.005576256196945906,0.031077450141310692,0.9955016374588013,0.0025538993068039417,-0.0002903561107814312,-0.001886758953332901,
1.5946575311636838e+18,0.005091364029794931,0.02913510985672474,0.9959890246391296,0.00041237613186240196,1.4949589967727661e-05,0.0005520209670066833,
1.594657531166576e+18,0.0053338101133704185,0.027921147644519806,0.9930647015571594,-0.0014082849957048893,-0.0018023713491857052,0.00024451687932014465,
1.5946575311702464e+18,0.003636688692495227,0.028649523854255676,0.9940394163131714,0.001026477082632482,-0.003301554825156927,-0.0003632679581642151,
1.594657531174561e+18,0.006061147898435593,0.027435559779405594,0.9945268034934998,0.0016235832590609789,-0.0008508823812007904,0.001456979662179947,
1.5946575311787937e+18,0.003879134776070714,0.02622159756720066,0.9957453608512878,0.0019128057174384594,-0.0014494643546640873,0.00023327022790908813,
1.594657531183019e+18,0.004848918411880732,0.028892317786812782,0.9935520887374878,0.0012909997021779418,0.0003799116238951683,-0.001585882157087326,
1.594657531187251e+18,0.007030931767076254,0.028163937851786613,0.9957453608512878,-0.001142776571214199,0.004011110402643681,0.001758970320224762,
1.5946575311914964e+18,0.003879134776070714,0.02840672992169857,0.9950142502784729,-0.00022457563318312168,0.00337167177349329,0.001744188368320465,
1.5946575311957445e+18,0.0058187018148601055,0.028649523854255676,0.9957453608512878,8.017756044864655e-05,0.00061754509806633,0.0008209310472011566,
1.5946575311999898e+18,0.0046064723283052444,0.028649523854255676,0.994283139705658,-0.0008290940895676613,-0.0021134382113814354,0.00020829960703849792,
1.5946575312042068e+18,0.0041215806268155575,0.029620693996548653,0.9928209781646729,0.0003893368411809206,-0.0008842144161462784,-0.0007020458579063416,
1.5946575312084316e+18,0.0053338101133704185,0.02840672992169857,0.9940394163131714,-0.002036862540990114,0.0021518757566809654,0.0011210478842258453,
1.5946575312135094e+18,0.0041215806268155575,0.02622159756720066,0.9935520887374878,0.00010031578131020069,-0.0005920007824897766,0.0005058944225311279,
1.5946575312171354e+18,0.005091364029794931,0.028649523854255676,0.9969637989997864,0.0010080706560984254,0.0006244378164410591,0.0005016438663005829,
1.5946575312210834e+18,0.00630359398201108,0.026464389637112617,0.9933083653450012,0.0009995995787903666,0.0018306542187929153,0.002011757344007492,
1.5946575312253637e+18,0.005576256196945906,0.028163937851786613,0.9947705268859863,-0.00022026430815458298,0.0009066732600331306,0.0016919858753681183,
1.5946575312296202e+18,0.006788485683500767,0.029377900063991547,0.9925772547721863,-0.0005212791729718447,0.0005961880087852478,0.0028892308473587036,
1.5946575312338929e+18,0.0046064723283052444,0.028649523854255676,0.9920898675918579,-0.0002140328288078308,0.0021055079996585846,-0.0010723061859607697,
1.594657531237988e+18,0.0046064723283052444,0.02694997750222683,0.9918461441993713,0.002513559302315116,0.0017849486321210861,-0.0001547001302242279,
1.594657531242255e+18,0.003636688692495227,0.027921147644519806,0.990384042263031,0.0037039006128907204,-0.00035011256113648415,-0.001970592886209488,
1.594657531246441e+18,0.00630359398201108,0.027921147644519806,0.9940394163131714,0.003067043609917164,0.0011671585962176323,-0.0010454356670379639,
1.5946575312506875e+18,0.007758269552141428,0.02913510985672474,0.9984260201454163,1.2610573321580887e-05,0.004186009988188744,-0.00043091922998428345,
1.5946575312550093e+18,0.006061147898435593,0.030106279999017715,0.9955016374588013,-0.0011989590711891651,0.0005164425820112228,0.0007841624319553375,
1.594657531259247e+18,0.006061147898435593,0.028163937851786613,0.9945268034934998,-0.0017946157604455948,-0.0006993608549237251,-0.0013424865901470184,
1.5946575312634929e+18,0.005091364029794931,0.028163937851786613,0.9940394163131714,-0.0008709372486919165,-0.000996350310742855,-0.0004226081073284149,
1.5946575312676408e+18,0.0053338101133704185,0.029377900063991547,0.9937956929206848,0.00155930919572711,-0.0006851116195321083,-0.0004190579056739807,
1.5946575312719124e+18,0.007758269552141428,0.028649523854255676,0.9920898675918579,0.0021519376896321774,-0.0006793541833758354,-0.0010212697088718414,
1.5946575312760996e+18,0.0053338101133704185,0.027435559779405594,0.9923335909843445,0.0003166582901030779,0.0008406843990087509,-0.0013155527412891388,
1.594657531280342e+18,0.005091364029794931,0.02840672992169857,0.9937956929206848,-0.001503198640421033,0.0008336193859577179,0.002329893410205841,
1.5946575312845916e+18,0.0046064723283052444,0.0276783537119627,0.994283139705658,-0.0002791027072817087,-0.0012934477999806404,0.001704581081867218,
1.5946575312888417e+18,0.005576256196945906,0.028163937851786613,0.9962327480316162,0.0030547683127224445,-0.0015854439698159695,0.0004787929356098175,
1.5946575312930685e+18,0.002424459205940366,0.028163937851786613,0.9979385733604431,0.003029097802937031,-0.0006635226309299469,0.0010805018246173859,
1.5946575312973215e+18,0.005576256196945906,0.02913510985672474,0.9940394163131714,0.0033065094612538815,0.0005535166710615158,-0.0004429034888744354,
1.5946575313015757e+18,0.00654603959992528,0.027435559779405594,0.9952579140663147,-0.0006585340015590191,0.0014574630185961723,0.0004694126546382904,
1.5946575313058212e+18,0.0046064723283052444,0.0276783537119627,0.9923335909843445,-0.00035013421438634396,-0.00218917615711689,-0.00044312700629234314,
1.5946575313100698e+18,0.007273377384990454,0.02840672992169857,0.9928209781646729,-4.4326065108180046e-05,-0.00035358453169465065,-0.00013653934001922607,
1.5946575313143101e+18,0.00630359398201108,0.027435559779405594,0.991358757019043,-0.0006496855057775974,0.0008608512580394745,0.0001674741506576538,
1.5946575313183654e+18,0.0053338101133704185,0.029377900063991547,0.9947705268859863,0.00026437174528837204,-0.0027807741425931454,0.0001660659909248352,
1.5946575313227756e+18,0.007030931767076254,0.02913510985672474,0.9955016374588013,0.0005650162929669023,-0.0015459428541362286,0.0004675351083278656,
1.5946575313268413e+18,0.0046064723283052444,0.027921147644519806,0.9959890246391296,-0.0009540615137666464,-0.002441549673676491,0.0010693371295928955,
1.5946575313310787e+18,0.00630359398201108,0.030349070206284523,0.9964764714241028,-0.0024603737983852625,1.8952414393424988e-06,-0.0025740377604961395,
1.594657531335314e+18,0.0058187018148601055,0.028163937851786613,0.9967200756072998,-0.0006225027609616518,0.00030474551022052765,-0.0016438104212284088,
1.594657531339635e+18,0.003879134776070714,0.026464389637112617,0.9945268034934998,-0.0018287354614585638,0.0006050504744052887,0.00018719583749771118,
1.5946575313438095e+18,0.00315179699100554,0.028649523854255676,0.994283139705658,-0.0018133679404854774,-5.766749382019043e-06,0.001094222068786621,
1.5946575313480061e+18,0.007273377384990454,0.030106279999017715,0.9950142502784729,-0.0021009957417845726,-0.0006114495918154716,-0.00012643635272979736,
1.5946575313522793e+18,0.005576256196945906,0.02622159756720066,0.9920898675918579,-0.0005690103862434626,-0.002423507161438465,-0.0007311031222343445,
1.594657531356554e+18,0.007758269552141428,0.027921147644519806,0.9930647015571594,-0.0014728268142789602,-0.0030088736675679684,-0.0007249601185321808,
1.594657531360657e+18,0.004364026710391045,0.02840672992169857,0.9964764714241028,-0.0005518521647900343,-0.001772125717252493,0.0010983236134052277,
1.5946575313649172e+18,0.0016971214208751917,0.029620693996548653,0.9974511861801147,-0.00024434877559542656,-0.0020600995048880577,0.001089092344045639,
1.5946575313691922e+18,0.00630359398201108,0.028649523854255676,0.9974511861801147,0.0012720342492684722,-0.002345654182136059,0.0022914037108421326,
1.5946575313734561e+18,0.006061147898435593,0.026707183569669724,0.9964764714241028,-0.0002529849298298359,-0.0008116131648421288,0.0016664154827594757,
1.5946575313776456e+18,0.00630359398201108,0.0276783537119627,0.9964764714241028,-0.001159456791356206,-0.000501926988363266,0.0010466799139976501,
1.5946575313818767e+18,0.007030931767076254,0.027435559779405594,0.9937956929206848,-0.001452579628676176,-0.00019484339281916618,-0.00047644227743148804,
1.5946575313861317e+18,0.003879134776070714,0.028892317786812782,0.994283139705658,7.395679131150246e-05,0.0019268561154603958,-0.0007753036916255951,
1.5946575313904307e+18,0.00315179699100554,0.029377900063991547,0.9923335909843445,0.00037620123475790024,0.0016077980399131775,0.0004426725208759308,
1.5946575313947574e+18,0.00654603959992528,0.028163937851786613,0.9940394163131714,0.001887369668111205,-0.0011315066367387772,0.0013475492596626282,
1.5946575313988667e+18,0.005091364029794931,0.027921147644519806,0.9911150336265564,0.0036887051537632942,0.0003923317417502403,0.002850554883480072,
1.594657531403098e+18,0.004848918411880732,0.027435559779405594,0.9972074627876282,-0.0005824158433824778,0.0012976322323083878,0.0010094046592712402,
1.5946575314074025e+18,0.0046064723283052444,0.02913510985672474,0.9920898675918579,0.0012396740494295955,7.526390254497528e-05,-0.0008162707090377808,
1.5946575314114788e+18,0.003879134776070714,0.02840672992169857,0.9957453608512878,0.004560782574117184,-0.0005310997366905212,0.0010077804327011108,
1.594657531415723e+18,0.0041215806268155575,0.027435559779405594,0.9928209781646729,0.00512818805873394,-0.0005266368389129639,0.0006964467465877533,
1.5946575314199647e+18,0.0046064723283052444,0.030106279999017715,0.9935520887374878,0.00023923884145915508,-0.0011279433965682983,-0.0005208663642406464,
1.5946575314242913e+18,0.007030931767076254,0.028163937851786613,0.9916024804115295,0.0011458263034000993,9.299907833337784e-05,0.0028150342404842377,
1.5946575314284073e+18,0.006061147898435593,0.027435559779405594,0.9920898675918579,0.0011361975921317935,-0.0011192457750439644,0.0027913786470890045,
1.5946575314327619e+18,0.004364026710391045,0.027921147644519806,0.9947705268859863,0.00021805171854794025,-0.00020124251022934914,0.0030707865953445435,
1.5946575314369254e+18,0.003879134776070714,0.026707183569669724,0.9952579140663147,0.0008219514274969697,0.002526242285966873,0.00031918659806251526,
1.5946575314411433e+18,0.00630359398201108,0.028649523854255676,0.9962327480316162,-9.355368092656136e-05,-0.002946574706584215,-0.001197822391986847,
1.5946575314454495e+18,0.00630359398201108,0.027435559779405594,0.9933083653450012,0.00021009845659136772,-0.0023160818964242935,-0.002702087163925171,
1.5946575314495365e+18,0.007273377384990454,0.028892317786812782,0.9950142502784729,0.00020833290182054043,0.00042917486280202866,0.0018636099994182587,
1.594657531454032e+18,0.003879134776070714,0.02694997750222683,0.994283139705658,-0.0013077475596219301,-0.0010887617245316505,0.0030594132840633392,
1.5946575314581002e+18,0.0033942428417503834,0.0276783537119627,0.9937956929206848,-0.0012967581860721111,-0.0022910763509571552,0.00030791014432907104,
1.5946575314623826e+18,0.003879134776070714,0.02694997750222683,0.9930647015571594,0.00022846856154501438,-0.0004546274431049824,-0.0012090057134628296,
1.5946575314666762e+18,0.004848918411880732,0.028163937851786613,0.9945268034934998,-0.0015906472690403461,-0.0007536732591688633,-0.001198846846818924,
1.594657531470942e+18,0.007515823468565941,0.028649523854255676,0.9967200756072998,-0.0006686823908239603,-0.0013530715368688107,-0.001188773661851883,
1.594657531475153e+18,0.004364026710391045,0.030106279999017715,0.9945268034934998,-0.00036019738763570786,-0.0019474332220852375,-0.0008759163320064545,
1.5946575314793244e+18,0.0058187018148601055,0.026707183569669724,0.9964764714241028,-0.0009629023261368275,-0.001628202386200428,0.0006457716226577759,
1.594657531483514e+18,0.0058187018148601055,0.02694997750222683,0.9933083653450012,-0.002469140337780118,-0.002825983799993992,0.002154674381017685,
1.594657531487772e+18,0.007273377384990454,0.027435559779405594,0.9940394163131714,-0.0006311957258731127,-0.001287905965000391,1.650303602218628e-05,
1.5946575314920494e+18,0.0053338101133704185,0.028163937851786613,0.994283139705658,0.0005855722120031714,0.0008429787121713161,-0.0002865009009838104,
1.5946575314963325e+18,0.00630359398201108,0.028892317786812782,0.9930647015571594,-0.001842276193201542,-0.00037556886672973633,-0.00028409436345100403,
1.5946575315006223e+18,0.004364026710391045,0.025736013427376747,0.9933083653450012,-0.0024325267877429724,0.002353380899876356,-0.0005845688283443451,
1.5946575315048676e+18,0.003636688692495227,0.02694997750222683,0.9940394163131714,-0.001503487816080451,-0.00039218924939632416,0.00032893940806388855,
1.5946575315090104e+18,0.006061147898435593,0.029377900063991547,0.9979385733604431,0.0021435380913317204,-0.0006917598657310009,-0.0020967498421669006,
1.5946575315132e+18,0.005576256196945906,0.028892317786812782,0.9962327480316162,0.0018226592801511288,0.0008283830247819424,0.00034379586577415466,
1.5946575315173875e+18,0.003636688692495227,0.027435559779405594,0.9964764714241028,-0.0018270486034452915,0.000821421854197979,3.8038939237594604e-05,
1.5946575315215593e+18,0.00630359398201108,0.02694997750222683,0.9928209781646729,5.500391125679016e-06,0.0005116527900099754,3.771856427192688e-05,
1.5946575315260964e+18,0.007030931767076254,0.028649523854255676,0.9937956929206848,0.0006111861439421773,-0.00040124449878931046,0.0009460002183914185,
1.5946575315302316e+18,0.005091364029794931,0.02913510985672474,0.991358757019043,0.0009089160012081265,0.0008135908283293247,0.0006351843476295471,
1.5946575315343188e+18,0.007515823468565941,0.02913510985672474,0.9925772547721863,0.0005984121235087514,-0.00040470995008945465,0.0009327121078968048,
1.5946575315383373e+18,0.0058187018148601055,0.027435559779405594,0.9935520887374878,-0.0012238123454153538,0.0005072886124253273,-0.0011951848864555359,
1.594657531542567e+18,0.004848918411880732,0.02840672992169857,0.9935520887374878,-0.0003049303777515888,0.0008058920502662659,-0.0011851415038108826,
1.594657531546756e+18,0.0058187018148601055,0.027921147644519806,0.9967200756072998,-0.00030236784368753433,-0.00041234400123357773,-0.0002665892243385315,
1.59465753155112e+18,0.006061147898435593,0.0276783537119627,0.9964764714241028,0.001517368946224451,-0.00010601337999105453,-0.000567212700843811,
1.5946575315554557e+18,0.003879134776070714,0.026464389637112617,0.9957453608512878,0.001504617976024747,0.00019774306565523148,0.0003461502492427826,
1.5946575315596774e+18,0.0033942428417503834,0.026707183569669724,0.9933083653450012,0.00028051016852259636,-0.00040965015068650246,-0.0002624914050102234,
1.594657531563914e+18,0.006788485683500767,0.028163937851786613,0.9952579140663147,-0.0027505066245794296,-0.0016176719218492508,-0.00147174671292305,
1.5946575315679782e+18,0.0041215806268155575,0.028649523854255676,0.9945268034934998,-0.0015159293543547392,-0.002209810074418783,-0.0011565126478672028,
1.5946575315722806e+18,0.0058187018148601055,0.027921147644519806,0.9940394163131714,1.1139549314975739e-05,-7.117865607142448e-05,-0.0011467933654785156,
1.594657531576619e+18,0.004848918411880732,0.027192767709493637,0.9947705268859863,-0.002109015826135874,0.0008380175568163395,0.0006800368428230286,
1.5946575315806996e+18,0.007515823468565941,0.029620693996548653,0.9957453608512878,0.0006345006404444575,-0.0009862207807600498,0.0003714561462402344,
1.594657531585029e+18,0.0058187018148601055,0.030349070206284523,0.9972074627876282,-0.002096625044941902,0.00023353053256869316,-0.0008431263267993927,
1.5946575315891267e+18,0.005576256196945906,0.027921147644519806,0.9952579140663147,-0.0023818721529096365,-0.0021913591772317886,-0.00023031234741210938,
1.5946575315934633e+18,0.003636688692495227,0.0276783537119627,0.9930647015571594,0.0015754010528326035,-0.0006586145609617233,0.0009830892086029053,
1.594657531597757e+18,0.006061147898435593,0.02986348792910576,0.9933083653450012,0.0006535645807161927,-0.0003502136096358299,0.0012776926159858704,
1.5946575316017864e+18,0.004848918411880732,0.030349070206284523,0.9928209781646729,-0.0017748551908880472,0.002075656782835722,-0.0008531026542186737,
1.5946575316060854e+18,0.0041215806268155575,0.0276783537119627,0.9881907105445862,0.0003601210191845894,0.0023610806092619896,0.0024855919182300568,
1.594657531610567e+18,0.006061147898435593,0.025736013427376747,0.9923335909843445,5.422881804406643e-05,0.002644105814397335,0.0018589720129966736,
1.5946575316145472e+18,0.004364026710391045,0.025250427424907684,0.9933083653450012,0.0018709688447415829,0.0008046901784837246,-0.0005795769393444061,
1.594657531619087e+18,0.004364026710391045,0.027192767709493637,0.9955016374588013,0.0009466485353186727,-0.00041353562846779823,0.00033388659358024597,
1.594657531623113e+18,0.006788485683500767,0.02913510985672474,0.9955016374588013,-0.0008785021491348743,0.0014071348123252392,-0.0011832453310489655,
1.5946575316272973e+18,0.004364026710391045,0.026464389637112617,0.9957453608512878,-0.001173985656350851,0.0004867124371230602,-0.000870436429977417,
1.594657531631532e+18,0.007030931767076254,0.02913510985672474,0.9940394163131714,4.7343550249934196e-05,0.0013912199065089226,-0.00025739148259162903,
1.5946575316357635e+18,0.0046064723283052444,0.028892317786812782,0.9923335909843445,-0.0011645180638879538,0.0019852612167596817,0.001561969518661499,
1.5946575316399524e+18,0.005091364029794931,0.02694997750222683,0.9933083653450012,0.0018739274237304926,0.0007571144960820675,0.0015488453209400177,
1.594657531644158e+18,0.005576256196945906,0.028892317786812782,0.994283139705658,0.0006467163329944015,0.0007507521659135818,0.002141561359167099,
1.594657531648376e+18,0.007030931767076254,0.027921147644519806,0.9950142502784729,-0.0011759139597415924,0.0028645042330026627,0.0012149661779403687,
1.594657531652528e+18,0.003879134776070714,0.025978805497288704,0.9969637989997864,-0.0011660323943942785,-0.0001882263459265232,0.0021133534610271454,
1.5946575316568986e+18,0.0041215806268155575,0.027921147644519806,0.9957453608512878,-0.0020648317877203226,-0.0004895105957984924,0.0017927289009094238,
1.5946575316611876e+18,0.006788485683500767,0.029620693996548653,0.9933083653450012,-0.0020474803168326616,-0.0007882630452513695,0.000869065523147583,
1.5946575316654108e+18,0.0053338101133704185,0.026464389637112617,0.9933083653450012,0.0022098489571362734,0.00042982492595911026,0.0011646300554275513,
1.5946575316695636e+18,0.004364026710391045,0.02986348792910576,0.9930647015571594,-0.0002316487953066826,-0.0004823850467801094,-0.0012680813670158386,
1.5946575316740035e+18,0.004848918411880732,0.029377900063991547,0.9930647015571594,-0.0005325681995600462,0.0010359985753893852,-0.003377489745616913,
1.5946575316779722e+18,0.00654603959992528,0.028649523854255676,0.9937956929206848,-0.00022522686049342155,0.0016330238431692123,-0.0009261779487133026,
1.594657531682267e+18,0.00654603959992528,0.02840672992169857,0.9940394163131714,0.0021995934657752514,-0.0008036261424422264,-0.0003126673400402069,
1.5946575316866184e+18,0.00654603959992528,0.028163937851786613,0.9989133477210999,0.0012725115520879626,-0.000494007021188736,0.00029569119215011597,
1.5946575316907182e+18,0.004364026710391045,0.028163937851786613,0.9972074627876282,-0.0002525115851312876,-0.001095588319003582,-0.0012211203575134277,
1.5946575316949627e+18,0.005576256196945906,0.028892317786812782,0.9972074627876282,5.247630178928375e-05,0.0010336805135011673,-0.002422325313091278,
1.5946575316992113e+18,0.003636688692495227,0.028649523854255676,0.9957453608512878,0.0009606332750990987,0.0013278592377901077,2.0954757928848267e-05,
1.5946575317035108e+18,0.005576256196945906,0.028649523854255676,0.9925772547721863,0.0027697563637048006,-0.0023176902905106544,0.001232244074344635,
1.5946575317077696e+18,0.0033942428417503834,0.028649523854255676,0.991358757019043,0.0027464809827506542,0.0016390439122915268,0.0006161555647850037,
1.5946575317119967e+18,0.0021820133551955223,0.028649523854255676,0.991358757019043,-2.3923348635435104e-06,0.0025338688865303993,0.0006109774112701416,
1.594657531716232e+18,0.007273377384990454,0.027192767709493637,0.994283139705658,0.0018148235976696014,0.0016039777547121048,0.0012115761637687683,
1.5946575317202747e+18,0.005576256196945906,0.027435559779405594,0.9957453608512878,0.00361676886677742,0.0009847674518823624,0.0030185915529727936,
1.5946575317245727e+18,0.005576256196945906,0.031077450141310692,0.9955016374588013,0.0005577161209657788,-0.0011435700580477715,0.0008731633424758911,
1.5946575317288532e+18,0.0041215806268155575,0.028649523854255676,0.9984260201454163,-0.0018698980566114187,0.0018946994096040726,-4.27737832069397e-05,
1.5946575317331512e+18,0.0046064723283052444,0.027192767709493637,0.9945268034934998,-3.6989105865359306e-05,0.0018787775188684464,-0.0027682073414325714,
1.5946575317372897e+18,0.00654603959992528,0.027435559779405594,0.9959890246391296,0.0014776515308767557,0.0012572575360536575,-0.0006248801946640015,
1.594657531741629e+18,0.004848918411880732,0.0276783537119627,0.9940394163131714,0.0005566364852711558,-0.002084832638502121,-0.0018310919404029846,
1.5946575317457088e+18,0.007273377384990454,0.02840672992169857,0.9935520887374878,0.001460556872189045,-0.0008558491244912148,-0.00030137598514556885,
1.5946575317500283e+18,0.004364026710391045,0.02694997750222683,0.9918461441993713,0.0011454172199591994,-0.0005457913503050804,0.0009126216173171997,
1.5946575317543007e+18,0.006061147898435593,0.027435559779405594,0.9964764714241028,0.0029529877938330173,-0.0014498033560812473,0.003025013953447342,
1.5946575317585536e+18,0.0026669050566852093,0.028163937851786613,0.9957453608512878,-0.0010090847499668598,-0.0014376197941601276,-0.00033193454146385193,
1.5946575317626138e+18,0.00315179699100554,0.028892317786812782,0.9957453608512878,-0.0016063370276242495,-0.0011226730421185493,-0.0009348727762699127,
1.5946575317669156e+18,0.0041215806268155575,0.030106279999017715,0.9974511861801147,-0.0015928384382277727,9.822472929954529e-05,-0.0006241500377655029,
1.594657531771243e+18,0.0016971214208751917,0.027435559779405594,0.9964764714241028,-0.00036798929795622826,-0.0008111977949738503,-0.0021332353353500366,
1.5946575317753162e+18,0.0058187018148601055,0.02694997750222683,0.9955016374588013,0.0005437008803710341,-0.001712979283183813,0.0006104819476604462,
1.5946575317796178e+18,0.00630359398201108,0.02840672992169857,0.9962327480316162,-0.0006723317783325911,-0.0007899869233369827,0.002119682729244232,
1.5946575317838858e+18,0.006061147898435593,0.027192767709493637,0.9940394163131714,0.000847647781483829,-0.00048048235476017,-0.0003210604190826416,
1.5946575317880005e+18,0.0053338101133704185,0.027921147644519806,0.9952579140663147,-0.00158240320160985,-0.0013850429095327854,-0.0003183633089065552,
1.5946575317922847e+18,0.005576256196945906,0.027435559779405594,0.9952579140663147,-0.0012662394437938929,-0.0007676719687879086,0.0008957758545875549,
1.5946575317965952e+18,0.006788485683500767,0.027192767709493637,0.9967200756072998,-0.001558464951813221,0.0004502427764236927,0.001191113144159317,
1.5946575318009009e+18,0.0029093509074300528,0.027192767709493637,0.9959890246391296,0.0014832911547273397,0.0007493253797292709,-0.0003332272171974182,
1.594657531804972e+18,0.005091364029794931,0.027921147644519806,0.994283139705658,0.0020765583030879498,0.002257358282804489,-0.00033042579889297485,
1.5946575318092925e+18,0.006061147898435593,0.027921147644519806,0.9940394163131714,-0.0006666854023933411,0.0019355230033397675,-0.001236245036125183,
1.5946575318134003e+18,0.006788485683500767,0.028649523854255676,0.9923335909843445,-0.0009639488998800516,0.0007077939808368683,-0.00031726062297821045,
1.5946575318177436e+18,0.0053338101133704185,0.028649523854255676,0.9945268034934998,0.002981408964842558,-0.0008124839514493942,0.0005940049886703491,
1.5946575318220337e+18,0.003636688692495227,0.027921147644519806,0.9920898675918579,0.0026534891221672297,-0.001411388162523508,0.0011947453022003174,
1.5946575318260995e+18,0.005091364029794931,0.027192767709493637,0.9928209781646729,-9.460281580686569e-05,-0.0017023938708007336,-0.00032962486147880554,
1.5946575318303964e+18,0.005576256196945906,0.0276783537119627,0.9976949095726013,-0.0010024055372923613,-0.00017375824972987175,0.0008846111595630646,
1.594657531834671e+18,0.0046064723283052444,0.027921147644519806,0.9962327480316162,0.000823213835246861,-0.000475163571536541,-3.1422823667526245e-05,
1.594657531838907e+18,0.0058187018148601055,0.02840672992169857,0.9952579140663147,0.0014220280572772026,-0.0016826349310576916,0.0008774399757385254,
1.5946575318431747e+18,0.0046064723283052444,0.027435559779405594,0.9962327480316162,0.0011072122724726796,0.0013601640239357948,0.0005672015249729156,
1.594657531847375e+18,0.006061147898435593,0.028892317786812782,0.9925772547721863,0.0004921761574223638,0.00104586873203516,0.00116816908121109,
1.5946575318514793e+18,0.006061147898435593,0.028892317786812782,0.9925772547721863,0.00109377212356776,-0.0016887141391634941,0.0005526207387447357,
1.5946575318557908e+18,0.0053338101133704185,0.02913510985672474,0.9896529316902161,-0.0004297490231692791,-0.0013716570101678371,0.0026680417358875275,
1.5946575318599933e+18,0.005091364029794931,0.028892317786812782,0.9898965954780579,-0.0010318695567548275,0.000759931281208992,0.0020398907363414764,
1.5946575318641377e+18,0.006061147898435593,0.02840672992169857,0.9916024804115295,-0.00102319847792387,-0.0010636509396135807,-0.0004001818597316742,
1.5946575318684928e+18,0.004364026710391045,0.027435559779405594,0.9950142502784729,-0.0001060024369508028,0.0019739470444619656,-0.003122609108686447,
1.5946575318726725e+18,0.00630359398201108,0.030349070206284523,0.9972074627876282,-0.0001051116269081831,0.0004430292174220085,-0.0021877698600292206,
1.5946575318768696e+18,0.005091364029794931,0.02840672992169857,0.9947705268859863,-0.0010128261055797338,0.0007421723566949368,-0.0003521926701068878,
1.5946575318810952e+18,0.00630359398201108,0.027921147644519806,0.9935520887374878,-0.003730108728632331,-0.0013841260224580765,0.0011650994420051575,
1.5946575318853202e+18,0.007273377384990454,0.025978805497288704,0.9947705268859863,-0.0006701035890728235,-0.00016103079542517662,0.0005495771765708923,
1.5946575318895073e+18,0.004364026710391045,0.027192767709493637,0.9930647015571594,0.0020613211672753096,-0.0010682754218578339,0.001756422221660614,
1.5946575318938824e+18,0.005576256196945906,0.02840672992169857,0.9935520887374878,0.0023468651343137026,-0.0007564323022961617,-7.553398609161377e-05,
1.5946575318981594e+18,0.005576256196945906,0.02694997750222683,0.990384042263031,0.00111567962449044,-0.0004472094587981701,-0.00370929017663002,
1.5946575319022474e+18,0.0046064723283052444,0.026464389637112617,0.9945268034934998,0.002317768055945635,-0.0010491837747395039,0.0005620047450065613,
1.5946575319065728e+18,0.0046064723283052444,0.025736013427376747,0.994283139705658,0.0010868272511288524,-0.0010403669439256191,0.003283075988292694,
1.5946575319107676e+18,0.006061147898435593,0.029377900063991547,0.9955016374588013,-0.0022538313642144203,-0.0019402219913899899,-7.604062557220459e-05,
1.5946575319149276e+18,0.005091364029794931,0.02840672992169857,0.9955016374588013,-0.0016291597858071327,-0.00010672211647033691,0.0008331984281539917,
1.5946575319192415e+18,0.005091364029794931,0.027435559779405594,0.9950142502784729,-0.00010113953612744808,-0.00010582525283098221,-0.00038526952266693115,
1.594657531923408e+18,0.0041215806268155575,0.027435559779405594,0.9955016374588013,0.0017169062048196793,0.0014093932695686817,0.0008294321596622467,
1.5946575319277248e+18,0.00315179699100554,0.028892317786812782,0.9925772547721863,0.00200534425675869,-0.0010253777727484703,0.002033926546573639,
1.5946575319318804e+18,0.00654603959992528,0.029620693996548653,0.9940394163131714,-0.0004344349727034569,-0.00010816333815455437,-0.00010322779417037964,
1.5946575319361708e+18,0.0041215806268155575,0.028649523854255676,0.9911150336265564,0.0016892775893211365,-0.00010725436732172966,-0.0019195526838302612,
1.5946575319403684e+18,0.005091364029794931,0.02840672992169857,0.9935520887374878,-0.001959309447556734,0.000499378889799118,0.0002166368067264557,
1.5946575319446395e+18,0.00654603959992528,0.028892317786812782,0.9964764714241028,-0.0007313808891922235,0.001100914552807808,0.000820547342300415,
1.594657531948814e+18,0.00654603959992528,0.028163937851786613,0.9964764714241028,0.00048622896429151297,0.0016973945312201977,0.0005107857286930084,
1.5946575319531308e+18,0.0053338101133704185,0.02840672992169857,0.9959890246391296,0.0022993388120085,0.0007745330221951008,0.002323690801858902,
1.5946575319572948e+18,0.007273377384990454,0.027435559779405594,0.9935520887374878,0.0010685528395697474,0.0013737557455897331,0.0023041628301143646,
1.5946575319615414e+18,0.0053338101133704185,0.02840672992169857,0.9928209781646729,0.00015097553841769695,0.002270809840410948,0.0010733343660831451,
1.5946575319657894e+18,0.0053338101133704185,0.028163937851786613,0.9925772547721863,0.0022697686217725277,0.0013431292027235031,0.001670047640800476,
1.5946575319700058e+18,0.00630359398201108,0.028892317786812782,0.9962327480316162,0.0016449630493298173,0.0004232451319694519,-0.00016118213534355164,
1.5946575319742646e+18,0.004848918411880732,0.025978805497288704,0.9952579140663147,-0.0023061176761984825,0.0004196884110569954,0.0007487721741199493,
1.594657531978543e+18,0.004364026710391045,0.02694997750222683,0.9986696839332581,0.0013476531021296978,-0.003521095961332321,0.0013482123613357544,
1.594657531982683e+18,0.003879134776070714,0.029377900063991547,0.9959890246391296,-0.0007837335579097271,-0.00015998119488358498,0.0016397498548030853,
1.5946575319869857e+18,0.003879134776070714,0.026707183569669724,0.9959890246391296,-0.0019886111840605736,-0.0013701007701456547,-0.001402687281370163,
1.5946575319911485e+18,0.0041215806268155575,0.025978805497288704,0.9957453608512878,0.0019653572235256433,-0.00014712335541844368,-0.00017943978309631348,
1.59465753199545e+18,0.005576256196945906,0.027192767709493637,0.9935520887374878,0.0013431096449494362,0.0007627108134329319,0.0013363994657993317,
1.5946575319995779e+18,0.0058187018148601055,0.02913510985672474,0.9933083653450012,0.00012035900726914406,-0.0013637603260576725,0.0016280338168144226,
1.594657532003845e+18,0.007758269552141428,0.030349070206284523,0.9933083653450012,-0.0004863843787461519,0.0001620291732251644,0.0022200867533683777,
1.594657532008159e+18,0.003879134776070714,0.02913510985672474,0.9920898675918579,-0.0026023585814982653,-0.0007479297928512096,0.0031100288033485413,
1.594657532012411e+18,0.0058187018148601055,0.027435559779405594,0.9962327480316162,-0.00046042841859161854,-0.001953108236193657,0.0027810297906398773,
1.594657532016581e+18,0.0058187018148601055,0.02913510985672474,0.9937956929206848,-0.00045655923895537853,-0.0019366955384612083,0.0012433305382728577,
1.5946575320207196e+18,0.004364026710391045,0.029377900063991547,0.9964764714241028,-0.00045272265560925007,0.002016836777329445,0.0015357472002506256,
1.5946575320250168e+18,0.008243161253631115,0.027192767709493637,0.9952579140663147,0.0010654114885255694,0.0007884246297180653,0.0018257088959217072,
1.5946575320293048e+18,0.0058187018148601055,0.02694997750222683,0.9920898675918579,0.0019650564063340425,0.00047893309965729713,0.0005989037454128265,
1.594657532033456e+18,0.0041215806268155575,0.02913510985672474,0.9930647015571594,0.0025542753282934427,-0.0007365550845861435,0.0015024691820144653,
1.594657532037755e+18,0.003636688692495227,0.029620693996548653,0.9930647015571594,-0.00019298295956104994,0.0004810979589819908,0.0008841119706630707,
1.5946575320418744e+18,0.005091364029794931,0.0276783537119627,0.9916024804115295,-0.0004942271625623107,0.0007799211889505386,0.0002709515392780304,
1.5946575320461294e+18,0.007758269552141428,0.025736013427376747,0.9940394163131714,0.001327121863141656,0.0013790987432003021,-0.0006399229168891907,
1.5946575320504026e+18,0.007030931767076254,0.02840672992169857,0.9964764714241028,-0.00019836029969155788,-0.00044968537986278534,0.00118265300989151,
1.5946575320547197e+18,0.0046064723283052444,0.02840672992169857,0.9986696839332581,-0.000196693348698318,-0.0013545043766498566,-3.875046968460083e-05,
1.5946575320588646e+18,0.004364026710391045,0.028163937851786613,0.9955016374588013,-0.00019504048395901918,0.0007769395597279072,0.0005673058331012726,
1.5946575320631224e+18,0.005091364029794931,0.027435559779405594,0.9957453608512878,-0.0007991333259269595,-0.0028639808297157288,-0.0003460608422756195,
1.5946575320673065e+18,0.0046064723283052444,0.02840672992169857,0.9964764714241028,0.0016305097378790379,-0.00011412007734179497,-0.0018574781715869904,
1.594657532071565e+18,0.004364026710391045,0.02986348792910576,0.9933083653450012,-0.0008061197586357594,0.0038240966387093067,-0.0006304085254669189,
1.5946575320758333e+18,0.004848918411880732,0.028649523854255676,0.9923335909843445,-0.0011022115359082818,0.002277631312608719,-0.0009279735386371613,
1.5946575320799383e+18,0.004848918411880732,0.028163937851786613,0.9937956929206848,-0.002001547021791339,0.0004412955604493618,-1.158192753791809e-05,
1.5946575320842153e+18,0.005091364029794931,0.027921147644519806,0.9945268034934998,0.00043820019345730543,0.0010433197021484375,0.0008971132338047028,
1.5946575320884022e+18,0.007030931767076254,0.02913510985672474,0.9945268034934998,-0.0010798119474202394,-0.0016912417486310005,-1.9025057554244995e-05,
1.5946575320927562e+18,0.00630359398201108,0.028649523854255676,0.9972074627876282,0.000746457721106708,-0.0019798954017460346,0.0011925995349884033,
1.5946575320969667e+18,0.00630359398201108,0.0276783537119627,0.9940394163131714,0.0031631127931177616,-0.00166039215400815,-2.888590097427368e-05,
1.5946575321011384e+18,0.005091364029794931,0.02694997750222683,0.9933083653450012,0.0007136041531339288,-0.00043497513979673386,-0.0027544349431991577,
1.5946575321053225e+18,0.005576256196945906,0.027921147644519806,0.9937956929206848,-0.00020099047105759382,-0.0004313196986913681,0.0006002373993396759,
1.5946575321096855e+18,0.003879134776070714,0.028892317786812782,0.9952579140663147,0.0004064304521307349,-0.004667818546295166,0.0012009255588054657,
1.594657532113918e+18,0.004364026710391045,0.028163937851786613,0.9935520887374878,0.002220210852101445,-0.0022056656889617443,-2.063065767288208e-05,
1.5946575321182085e+18,0.0053338101133704185,0.027435559779405594,0.9959890246391296,0.0009900896111503243,-0.0006728009320795536,0.0014938749372959137,
1.5946575321223404e+18,0.006061147898435593,0.025736013427376747,0.9957453608512878,0.0018903674790635705,-0.0012728790752589703,0.0002698563039302826,
1.5946575321266696e+18,0.007030931767076254,0.02694997750222683,0.9935520887374878,-0.0008513116044923663,0.0011607455089688301,-0.00033814460039138794,
1.5946575321308e+18,0.003636688692495227,0.02840672992169857,0.9945268034934998,-0.0002384259132668376,0.0020595891401171684,-0.001849628984928131,
1.5946575321350019e+18,0.007030931767076254,0.02840672992169857,0.9947705268859863,-0.0017507522134110332,0.0005279518663883209,-0.000622626394033432,
1.594657532139246e+18,0.003879134776070714,0.02694997750222683,0.9957453608512878,-0.001433173893019557,0.0011292477138340473,-0.0006173960864543915,
1.5946575321434757e+18,0.0046064723283052444,0.029377900063991547,0.9937956929206848,0.0013046632520854473,0.0020283558405935764,0.0012049898505210876,
1.5946575321478141e+18,0.0033942428417503834,0.028649523854255676,0.9928209781646729,0.001293699722737074,0.0004969807341694832,-0.0006223320960998535,
1.5946575321519483e+18,0.005091364029794931,0.027921147644519806,0.9937956929206848,-0.00023150164633989334,0.000795670785009861,0.0021086931228637695,
1.594657532156267e+18,0.005091364029794931,0.027435559779405594,0.9955016374588013,0.0006790416082367301,-0.0004224791191518307,-2.9090791940689087e-05,
1.5946575321604332e+18,0.00315179699100554,0.026707183569669724,0.9955016374588013,-0.0017495924839749932,-0.0010246611200273037,-2.88449227809906e-05,
1.5946575321646902e+18,0.004364026710391045,0.029620693996548653,0.9984260201454163,-0.005066415295004845,-0.00010745227336883545,0.0005771294236183167,
1.5946575321689516e+18,0.0058187018148601055,0.02840672992169857,0.9940394163131714,-0.0010865831281989813,-0.00040941499173641205,-0.0003363192081451416,
1.5946575321731e+18,0.004848918411880732,0.027192767709493637,0.9947705268859863,-0.0007745863404124975,0.0011083553545176983,0.0005751065909862518,
1.5946575321773545e+18,0.0033942428417503834,0.026707183569669724,0.9901403188705444,-0.0025852727703750134,0.0007961750961840153,0.0005702748894691467,
1.5946575321815808e+18,0.0046064723283052444,0.02840672992169857,0.9920898675918579,-0.00044348626397550106,0.0013952157460153103,-0.0006459802389144897,
1.5946575321858755e+18,0.0041215806268155575,0.028163937851786613,0.9906277060508728,-0.0004397595766931772,0.0007777600549161434,-0.0006405524909496307,
1.5946575321900503e+18,0.004364026710391045,0.028649523854255676,0.9901403188705444,0.0010782656027004123,-0.00013737380504608154,0.001484893262386322,
1.5946575321943473e+18,0.00630359398201108,0.028892317786812782,0.9935520887374878,-0.0007479912601411343,-0.00013621943071484566,0.0017752796411514282,
1.5946575321984637e+18,0.006061147898435593,0.027921147644519806,0.9947705268859863,-0.0010445716325193644,-0.0007408065721392632,-0.0006625689566135406,
1.594657532202766e+18,0.0041215806268155575,0.02913510985672474,0.9947705268859863,0.00047853600699454546,-0.0004317150451242924,0.00025159865617752075,
1.5946575322069673e+18,0.0058187018148601055,0.028892317786812782,0.994283139705658,0.0004745147889479995,-0.001033819280564785,-5.338340997695923e-05,
1.5946575322112714e+18,0.007030931767076254,0.02840672992169857,0.9930647015571594,0.0004705273313447833,-0.0004193992353975773,-0.0003558024764060974,
1.5946575322154243e+18,0.004364026710391045,0.029620693996548653,0.9952579140663147,-0.0013506223913282156,0.0004927227273583412,-0.0012614056468009949,
1.5946575322197256e+18,0.0058187018148601055,0.02840672992169857,0.9916024804115295,-0.00012780888937413692,0.0007914481684565544,-0.00034221261739730835,
1.5946575322238272e+18,0.0053338101133704185,0.028892317786812782,0.9940394163131714,-0.00012673484161496162,-0.00012380070984363556,-0.0015507973730564117,
1.5946575322281021e+18,0.006788485683500767,0.027435559779405594,0.9950142502784729,0.0010857939487323165,-0.0016370904631912708,-0.0006291717290878296,
1.594657532232431e+18,0.004848918411880732,0.02913510985672474,0.9959890246391296,0.0016824016347527504,0.00019386224448680878,-0.001229614019393921,
1.5946575322366077e+18,0.00630359398201108,0.02986348792910576,0.9972074627876282,0.0007596659706905484,0.0001922333613038063,-0.0021278783679008484,
1.5946575322408105e+18,0.004848918411880732,0.028892317786812782,0.9957453608512878,0.001661880174651742,-0.0010208459571003914,1.006200909614563e-05,
1.5946575322452106e+18,0.005576256196945906,0.027921147644519806,0.9940394163131714,-0.0010778787545859814,-0.0004065348766744137,-0.0002928897738456726,
1.5946575322494963e+18,0.0053338101133704185,0.027435559779405594,0.9906277060508728,-0.0019774187821894884,0.0005054790526628494,1.2438744306564331e-05,
1.5946575322537743e+18,0.003636688692495227,0.0276783537119627,0.9945268034934998,0.0019764555618166924,-0.0022245622240006924,0.0015266649425029755,
1.5946575322578609e+18,0.004364026710391045,0.029377900063991547,0.9937956929206848,0.0007483827648684382,0.0002170591615140438,-0.0006062276661396027,
1.5946575322621768e+18,0.00315179699100554,0.02694997750222683,0.9925772547721863,0.0007420937763527036,-0.001904826145619154,-0.0015097297728061676,
1.59465753226628e+18,0.005091364029794931,0.0276783537119627,0.9937956929206848,0.0007358576403930783,-0.000374489463865757,-0.0014970414340496063,
1.594657532270474e+18,0.0058187018148601055,0.028649523854255676,0.9945268034934998,0.00012394203804433346,0.0011429875157773495,-0.00027300044894218445,
1.5946575322748836e+18,0.004848918411880732,0.028649523854255676,0.9964764714241028,0.0001229005865752697,0.0020419801585376263,3.2160431146621704e-05,
1.594657532279141e+18,0.006788485683500767,0.030106279999017715,0.9952579140663147,0.0007275998359546065,0.0026305532082915306,3.1888484954833984e-05,
1.594657532283179e+18,0.007515823468565941,0.025978805497288704,0.9940394163131714,0.00011575361713767052,0.002608447801321745,0.00033448636531829834,
1.5946575322874683e+18,0.008243161253631115,0.028649523854255676,0.9940394163131714,0.00041764695197343826,-0.0007449979893863201,-0.0023941174149513245,
1.5946575322918228e+18,0.006061147898435593,0.027921147644519806,0.9923335909843445,0.00041413726285099983,-0.002555933315306902,-0.0014653988182544708,
1.5946575322958945e+18,0.0058187018148601055,0.02840672992169857,0.994283139705658,0.0007135230116546154,0.002008534502238035,-0.0011502169072628021,
1.5946575323001224e+18,0.005576256196945906,0.028649523854255676,0.9940394163131714,0.0013132588937878609,0.0007801922038197517,0.00037377700209617615,
1.5946575323043983e+18,0.00630359398201108,0.027921147644519806,0.9974511861801147,-0.00021210662089288235,-0.0007406938821077347,-0.00023509562015533447,
1.594657532308727e+18,0.004848918411880732,0.028649523854255676,0.9974511861801147,0.0016068716067820787,0.0001741279847919941,-0.0005359873175621033,
1.594657532312825e+18,0.0053338101133704185,0.028892317786812782,0.9957453608512878,0.0037134303711354733,-0.00013020075857639313,7.424876093864441e-05,
1.5946575323170842e+18,0.00654603959992528,0.026707183569669724,0.9933083653450012,-0.0002550326753407717,0.0007794913835823536,-0.0002292431890964508,
1.5946575323213005e+18,0.00630359398201108,0.02986348792910576,0.9925772547721863,-0.0011614873073995113,-0.004678646102547646,-0.0005301833152770996,
1.5946575323255258e+18,0.0046064723283052444,0.028649523854255676,0.9920898675918579,-0.0005459950771182775,-0.0010049385018646717,0.0006857365369796753,
1.594657532329741e+18,0.004364026710391045,0.026464389637112617,0.9911150336265564,-0.0008442727848887444,0.0008207024075090885,0.0009828396141529083,
1.5946575323339471e+18,0.006061147898435593,0.027192767709493637,0.9925772547721863,0.0012828835751861334,-9.479233995079994e-05,0.0012774467468261719,
1.5946575323381586e+18,0.0058187018148601055,0.028649523854255676,0.9935520887374878,-0.0002422267571091652,-0.0006997277960181236,-0.0008533485233783722,
1.5946575323425441e+18,0.0033942428417503834,0.028892317786812782,0.9952579140663147,-0.000543057220056653,-0.0019053113646805286,6.241723895072937e-05,
1.5946575323466156e+18,0.004364026710391045,0.027435559779405594,0.9959890246391296,-0.0005384937394410372,-0.0003749704919755459,0.0009704902768135071,
1.5946575323510008e+18,0.0058187018148601055,0.030106279999017715,0.9940394163131714,-0.002956896321848035,-6.89537264406681e-05,0.000962335616350174,
1.5946575323552015e+18,0.00654603959992528,0.0276783537119627,0.9947705268859863,-0.00414351187646389,0.002354553434997797,-0.0002572163939476013,
1.594657532359305e+18,0.005091364029794931,0.0276783537119627,0.9933083653450012,-0.002594362711533904,0.0017290348187088966,4.7810375690460205e-05,
1.594657532363555e+18,0.004848918411880732,0.029377900063991547,0.9950142502784729,-0.002875427482649684,0.0002001752145588398,-0.0002554580569267273,
1.5946575323678277e+18,0.00630359398201108,0.028892317786812782,0.9940394163131714,-0.00042833643965423107,-0.0004072384908795357,0.0024724826216697693,
1.5946575323720348e+18,0.005091364029794931,0.02694997750222683,0.9957453608512878,0.001089592813514173,-0.0004038163460791111,0.0012402422726154327,
1.5946575323762742e+18,0.004364026710391045,0.02694997750222683,0.9945268034934998,-0.002251089084893465,0.0011139069683849812,0.0018355511128902435,
1.5946575323805015e+18,0.0053338101133704185,0.02840672992169857,0.9933083653450012,-0.002232172293588519,0.0014074114151299,2.9280781745910645e-06,
1.5946575323847324e+18,0.00630359398201108,0.028892317786812782,0.9947705268859863,-0.0016076827887445688,0.0004869867116212845,2.902001142501831e-06,
1.5946575323889551e+18,0.006061147898435593,0.028892317786812782,0.9925772547721863,-7.984298281371593e-05,0.001694357953965664,2.8759241104125977e-06,
1.5946575323931694e+18,0.004364026710391045,0.027192767709493637,0.9928209781646729,0.0014351578429341316,0.0013772533275187016,-0.00030001625418663025,
1.5946575323974006e+18,0.0041215806268155575,0.02986348792910576,0.9928209781646729,0.0005144997267052531,-0.00045151542872190475,-0.0006003603339195251,
1.5946575324016302e+18,0.003879134776070714,0.02840672992169857,0.9930647015571594,-0.00039842166006565094,0.00015801005065441132,-0.0005953162908554077,
1.5946575324058463e+18,0.004364026710391045,0.028892317786812782,0.9928209781646729,-0.0003950735554099083,-0.0022662454284727573,0.0003182850778102875,
1.5946575324102216e+18,0.005576256196945906,0.027921147644519806,0.9937956929206848,0.0008197101997211576,-0.0031557995826005936,0.0027385391294956207,
1.5946575324144225e+18,0.0053338101133704185,0.027435559779405594,0.9964764714241028,-0.0003986419178545475,-0.001614950131624937,0.0005954615771770477,
1.5946575324186417e+18,0.0046064723283052444,0.029620693996548653,0.9959890246391296,0.0002104397863149643,-0.00038991495966911316,-0.0006210058927536011,
1.5946575324228626e+18,0.00654603959992528,0.026464389637112617,0.9933083653450012,-0.0025171220768243074,-0.0003866385668516159,-0.001827247440814972,
1.5946575324270917e+18,0.007273377384990454,0.028649523854255676,0.9928209781646729,-0.0015873722732067108,0.001130940392613411,-0.0002975650131702423,
1.594657532431285e+18,0.005576256196945906,0.027192767709493637,0.9933083653450012,-0.0009683009702712297,-0.001301491167396307,-0.0021122582256793976,
1.5946575324355587e+18,0.00630359398201108,0.029620693996548653,0.9933083653450012,0.0002512997016310692,-0.0003819563426077366,-0.0020945072174072266,
1.5946575324398108e+18,0.0041215806268155575,0.02913510985672474,0.9920898675918579,-5.3677940741181374e-05,0.001741314772516489,-0.0023797713220119476,
1.5946575324440794e+18,0.005091364029794931,0.02913510985672474,0.9911150336265564,0.0017639689613133669,0.001120950561016798,0.0015774816274642944,
1.5946575324483192e+18,0.005091364029794931,0.028892317786812782,0.9923335909843445,-0.0003709159791469574,0.0005057984963059425,-0.0014644339680671692,
1.594657532452559e+18,0.005576256196945906,0.02913510985672474,0.9950142502784729,-0.00036779907532036304,-0.0013156477361917496,0.0009707994759082794,
1.5946575324566374e+18,0.00630359398201108,0.030106279999017715,0.9964764714241028,-0.0009704402182251215,-0.002516055479645729,0.0018712393939495087,
1.5946575324608748e+18,0.004364026710391045,0.0276783537119627,0.9969637989997864,-5.368748679757118e-05,-0.0012834486551582813,-0.0008702762424945831,
1.5946575324651151e+18,0.004364026710391045,0.027921147644519806,0.9952579140663147,-0.0003561023622751236,0.0005445322021842003,0.0006513632833957672,
1.594657532469357e+18,0.0033942428417503834,0.029620693996548653,0.9916024804115295,-0.0015645739622414112,0.0005399561487138271,-0.0008684359490871429,
1.5946575324735954e+18,0.005091364029794931,0.028649523854255676,0.9916024804115295,-0.0018542918842285872,-0.0006760451942682266,-0.0011640042066574097,
1.5946575324778268e+18,0.0053338101133704185,0.02840672992169857,0.9928209781646729,-0.0006272457540035248,0.0020554293878376484,-0.0020628198981285095,
1.5946575324820636e+18,0.006061147898435593,0.027192767709493637,0.994283139705658,0.0018009529449045658,0.0017352905124425888,-0.0008340217173099518,
1.594657532486315e+18,0.005091364029794931,0.027921147644519806,0.9947705268859863,0.0020886848215013742,0.001720708329230547,-0.0005241520702838898,
1.5946575324905539e+18,0.0029093509074300528,0.02986348792910576,0.9950142502784729,-0.0012603926006704569,0.0020091147162020206,-0.00021688267588615417,
1.5946575324947927e+18,0.0053338101133704185,0.0276783537119627,0.9945268034934998,0.00026452867314219475,0.0010836338624358177,-0.0005179271101951599,
1.5946575324990436e+18,0.006788485683500767,0.029377900063991547,0.9935520887374878,-0.0009491581004112959,0.001983125228434801,-0.00021070986986160278,
1.5946575325032947e+18,0.0053338101133704185,0.029377900063991547,0.994283139705658,-0.0018497798591852188,-0.0010621994733810425,0.0006996579468250275,
1.5946575325075428e+18,0.0041215806268155575,0.030106279999017715,0.9928209781646729,0.00028582592494785786,0.0007639224641025066,-0.000820547342300415,
1.5946575325117862e+18,0.00654603959992528,0.028163937851786613,0.9920898675918579,0.0014948879834264517,0.0013632341288030148,-0.0014193840324878693,
1.5946575325159708e+18,0.0058187018148601055,0.02622159756720066,0.9937956929206848,0.0014823258388787508,-0.0007682829163968563,-0.000801723450422287,
1.5946575325200727e+18,0.004848918411880732,0.027435559779405594,0.9940394163131714,0.002984199207276106,-0.0007618269883096218,-0.0010978542268276215,
1.5946575325243763e+18,0.0016971214208751917,0.02840672992169857,0.9950142502784729,0.0008390600560232997,-0.001361156813800335,-0.00018003210425376892,
1.5946575325286195e+18,0.0021820133551955223,0.02840672992169857,0.9928209781646729,0.0017406069673597813,-0.003166914451867342,-0.0007842481136322021,
1.5946575325328689e+18,0.006061147898435593,0.028649523854255676,0.9959890246391296,0.0005145162576809525,-0.0007173740305006504,0.00013093650341033936,
1.5946575325371328e+18,0.005091364029794931,0.027192767709493637,0.9950142502784729,-0.0013070032000541687,-0.0004084794782102108,-0.00047589465975761414,
1.5946575325413325e+18,0.00654603959992528,0.027435559779405594,0.9947705268859863,-0.0009931540116667747,-0.0007079131901264191,-0.00016902759671211243,
1.5946575325454815e+18,0.007030931767076254,0.02840672992169857,0.9928209781646729,-0.0018934060353785753,0.00020663300529122353,0.0007409900426864624,
1.594657532549757e+18,0.004848918411880732,0.028163937851786613,0.9925772547721863,-0.0018774950876832008,0.0017192265950143337,-0.0016881637275218964,
1.594657532554031e+18,0.004848918411880732,0.027921147644519806,0.9918461441993713,0.00025834375992417336,0.0017047794535756111,-0.0022797100245952606,
1.5946575325581297e+18,0.0041215806268155575,0.027435559779405594,0.9935520887374878,0.0029819663614034653,0.001387587282806635,-0.0037748850882053375,
1.5946575325625175e+18,0.0058187018148601055,0.028649523854255676,0.9955016374588013,-0.0024946792982518673,0.0007701953873038292,-0.00253169983625412,
1.5946575325666127e+18,0.005576256196945906,0.02840672992169857,0.9940394163131714,-0.0012622519861906767,-0.0007506068795919418,-0.00039036571979522705,
1.594657532570862e+18,0.007030931767076254,0.027192767709493637,0.9981822967529297,0.0005655508721247315,-0.0019557629711925983,-0.0006899461150169373,
1.5946575325751562e+18,0.007030931767076254,0.027435559779405594,0.9969637989997864,0.0011665303027257323,-0.001333596184849739,-0.0021984800696372986,
1.594657532579399e+18,0.0041215806268155575,0.02913510985672474,0.9935520887374878,-5.4736388847231865e-05,-0.0004137912765145302,-0.0006656758487224579,
1.5946575325836347e+18,0.0058187018148601055,0.028892317786812782,0.9933083653450012,-0.0024772039614617825,0.0014068810269236565,-0.0012658126652240753,
1.5946575325879798e+18,0.005091364029794931,0.028163937851786613,0.9916024804115295,-0.0027592533733695745,0.0013950583525002003,0.0017734840512275696,
1.5946575325921523e+18,0.00654603959992528,0.028892317786812782,0.994283139705658,-0.0012217364273965359,-0.002251056022942066,0.0026671774685382843,
1.5946575325963853e+18,0.004364026710391045,0.028649523854255676,0.9955016374588013,0.0018171898555010557,-0.0007178098894655704,0.0017361640930175781,
1.5946575326004902e+18,0.00630359398201108,0.028163937851786613,0.9974511861801147,0.00331624923273921,0.0014082835987210274,0.0014187097549438477,
1.594657532604799e+18,0.0058187018148601055,0.028649523854255676,0.9950142502784729,0.0005625878693535924,0.00048785191029310226,-0.0007132701575756073,
1.5946575326090273e+18,0.004848918411880732,0.028649523854255676,0.9957453608512878,0.0026779219042509794,0.00018088612705469131,-0.0007072761654853821,
1.5946575326132582e+18,0.004848918411880732,0.027435559779405594,0.9918461441993713,0.0014439546503126621,0.00048223230987787247,-0.0007013343274593353,
1.5946575326174915e+18,0.004848918411880732,0.029377900063991547,0.9937956929206848,0.0017346865497529507,0.0007810462266206741,0.000818885862827301,
1.594657532621714e+18,0.004848918411880732,0.028163937851786613,0.9923335909843445,-9.708642028272152e-05,-0.0007398473098874092,-0.0003994591534137726,
1.5946575326259395e+18,0.0041215806268155575,0.026707183569669724,0.991358757019043,0.0014180592261254787,0.00017496757209300995,0.00020962953567504883,
1.5946575326301663e+18,0.005576256196945906,0.027435559779405594,0.9955016374588013,0.0008004108676686883,-0.0004322342574596405,0.00020786747336387634,
1.5946575326343818e+18,0.005576256196945906,0.02986348792910576,0.9976949095726013,0.0004908187547698617,-0.0010343343019485474,-0.0003996118903160095,
1.5946575326386017e+18,0.005576256196945906,0.02913510985672474,0.9955016374588013,-0.0028448314405977726,0.0026087495498359203,-0.00039625540375709534,
1.5946575326428214e+18,0.00630359398201108,0.02622159756720066,0.9979385733604431,-0.0013065955135971308,0.000163898803293705,-0.0016043856739997864,
1.5946575326470508e+18,0.004848918411880732,0.028163937851786613,0.9925772547721863,0.00021871388889849186,0.0007682540453970432,-0.0006823055446147919,
1.5946575326512773e+18,0.0058187018148601055,0.026707183569669724,0.9962327480316162,-8.598994463682175e-05,-0.0001467997208237648,-0.002190902829170227,
1.5946575326556662e+18,0.0041215806268155575,0.0276783537119627,0.9955016374588013,0.0032462584786117077,0.0016716294921934605,-0.0012638941407203674,
1.5946575326617034e+18,0.004848918411880732,0.026707183569669724,0.9950142502784729,0.0023103810381144285,0.0034747784957289696,0.001169651746749878,
1.594657532668704e+18,0.0053338101133704185,0.027435559779405594,0.9952579140663147,0.005016759969294071,0.003748444840312004,0.0008569583296775818,
1.594657532673398e+18,0.0053338101133704185,0.029620693996548653,0.9955016374588013,0.0025516743771731853,-0.0011289101094007492,-5.884096026420593e-05,
1.594657532678001e+18,0.003636688692495227,0.028649523854255676,0.9945268034934998,0.0025302318390458822,-0.0005136914551258087,0.0002445206046104431,
1.5946575326893343e+18,0.006788485683500767,0.029377900063991547,0.9918461441993713,-0.002034019911661744,0.00039922259747982025,0.0005453303456306458,
1.594657532697952e+18,0.005576256196945906,0.028163937851786613,0.9935520887374878,-0.0020169273484498262,0.0006987340748310089,0.0008436143398284912,
1.594657532702099e+18,0.00630359398201108,0.027192767709493637,0.9937956929206848,-0.0016971125733107328,8.712988346815109e-05,0.0005336590111255646,
1.5946575327064635e+18,0.0041215806268155575,0.027921147644519806,0.9959890246391296,-0.0007742531597614288,-0.0011250656098127365,0.0014377720654010773,
1.5946575327106066e+18,0.0058187018148601055,0.0276783537119627,0.9964764714241028,-0.002282076748088002,0.0003987187519669533,0.001728557050228119,
1.5946575327149215e+18,0.005576256196945906,0.028163937851786613,0.9974511861801147,-0.0007485698442906141,0.001001100055873394,0.00019970163702964783,
1.5946575327191488e+18,0.00630359398201108,0.0276783537119627,0.9945268034934998,0.000166318379342556,0.0012955525889992714,0.00019802525639533997,
1.5946575327233247e+18,0.003636688692495227,0.029620693996548653,0.9945268034934998,0.0010735186515375972,0.0003760680556297302,-0.0016208328306674957,
1.5946575327275008e+18,0.003879134776070714,0.028163937851786613,0.991358757019043,0.0010644973954185843,-0.0011414224281907082,-0.002212945371866226,
1.5946575327317865e+18,0.005091364029794931,0.02913510985672474,0.9933083653450012,-0.0004587776493281126,-0.0041604903526604176,0.0008343085646629333,
1.5946575327359588e+18,0.008000715635716915,0.0276783537119627,0.9935520887374878,0.00015080953016877174,-0.004428394604474306,0.0011301636695861816,
1.5946575327401464e+18,0.00630359398201108,0.027921147644519806,0.9952579140663147,-0.0013647873420268297,-0.0016653877682983875,-0.00039366260170936584,
1.5946575327444838e+18,0.003879134776070714,0.029377900063991547,0.9986696839332581,-0.0007475866004824638,0.00046866899356245995,0.0005182437598705292,
1.594657532748644e+18,0.003636688692495227,0.028649523854255676,0.9935520887374878,0.0004701594589278102,0.0010704630985856056,-0.0016061700880527496,
1.5946575327528266e+18,0.007030931767076254,0.026707183569669724,0.9952579140663147,-0.00013952353037893772,0.0013643326237797737,-0.00038121268153190613,
1.5946575327570345e+18,0.0029093509074300528,0.027192767709493637,0.9935520887374878,0.0007702469592913985,0.0019586002454161644,-7.514283061027527e-05,
1.5946575327613138e+18,0.004848918411880732,0.02913510985672474,0.9940394163131714,0.0001580424141138792,-0.00017792033031582832,-0.0034060366451740265,
1.5946575327654863e+18,0.00630359398201108,0.02913510985672474,0.9925772547721863,-0.00014615152031183243,0.00012644007802009583,-0.0012573525309562683,
1.5946575327696737e+18,0.007030931767076254,0.028163937851786613,0.9918461441993713,-0.0025678507518023252,-0.00048035383224487305,-0.0012467876076698303,
1.5946575327739963e+18,0.0058187018148601055,0.027192767709493637,0.9955016374588013,-0.0034548703115433455,-0.0007791835814714432,-0.0027506425976753235,
1.594657532778171e+18,0.0046064723283052444,0.027921147644519806,0.9940394163131714,-0.0016086422838270664,-0.00016690418124198914,-1.735985279083252e-06,
1.594657532782397e+18,0.0046064723283052444,0.028892317786812782,0.9964764714241028,-0.00038366043008863926,-0.0007712333463132381,0.002118341624736786,
1.594657532786595e+18,0.006061147898435593,0.030349070206284523,0.9959890246391296,-0.0018947659991681576,-0.001976216211915016,0.000889074057340622,
1.5946575327909112e+18,0.00654603959992528,0.026464389637112617,0.9950142502784729,-0.0012731116730719805,-0.004079671110957861,-0.001541323959827423,
1.5946575327950523e+18,0.004848918411880732,0.027192767709493637,0.9945268034934998,-0.0024738770443946123,-0.00131959468126297,-0.0027398355305194855,
1.5946575327993787e+18,0.004364026710391045,0.02840672992169857,0.9957453608512878,-0.0003330265171825886,0.0005086897872388363,-0.00180821493268013,
1.5946575328035028e+18,0.005091364029794931,0.028163937851786613,0.9916024804115295,0.0023955656215548515,0.0023216111585497856,2.417340874671936e-05,
1.594657532807779e+18,0.0033942428417503834,0.028649523854255676,0.9891654849052429,0.0005582390585914254,0.001999235711991787,2.3968517780303955e-05,
1.5946575328120617e+18,0.0041215806268155575,0.027921147644519806,0.9950142502784729,0.0011592797236517072,0.0013767029158771038,-0.0005819611251354218,
1.5946575328162043e+18,0.00630359398201108,0.028649523854255676,0.9974511861801147,0.002361001679673791,-0.00257212296128273,-0.0008799359202384949,
1.5946575328205112e+18,0.0058187018148601055,0.02840672992169857,0.9979385733604431,-8.176639676094055e-05,-0.0031562410295009613,0.0006417855620384216,
1.594657532824803e+18,0.003879134776070714,0.029620693996548653,0.9950142502784729,0.00022178655490279198,-0.0007067900151014328,0.001242123544216156,
1.5946575328290038e+18,0.0046064723283052444,0.026707183569669724,0.9964764714241028,0.0011285207001492381,0.00020774686709046364,-0.002705570310354233,
1.5946575328331264e+18,0.0046064723283052444,0.02913510985672474,0.994283139705658,-0.0013038902543485165,0.001417465042322874,-0.000865638256072998,
1.594657532837394e+18,0.006788485683500767,0.028163937851786613,0.9937956929206848,-0.0018986649811267853,0.001102688256651163,5.023181438446045e-05,
1.5946575328415987e+18,0.007273377384990454,0.030349070206284523,0.9923335909843445,-0.00248844176530838,-0.0016323719173669815,-0.0014645159244537354,
1.5946575328458217e+18,0.008000715635716915,0.025978805497288704,0.9976949095726013,0.0011668609222397208,-0.0007100566290318966,0.00036498531699180603,
1.5946575328501724e+18,0.005576256196945906,0.027435559779405594,0.9957453608512878,0.0005513235228136182,-0.0007040896452963352,-0.0008495412766933441,
1.5946575328543232e+18,0.00315179699100554,0.027435559779405594,0.9959890246391296,-0.0006647733971476555,0.0008161570876836777,-0.0005395375192165375,
1.5946575328585393e+18,0.0053338101133704185,0.02913510985672474,0.9957453608512878,-0.00035632122308015823,-0.0007050312124192715,0.00037359073758125305,
1.5946575328628723e+18,0.0041215806268155575,0.0276783537119627,0.9950142502784729,-0.0009590587578713894,-0.0031220344826579094,0.0012790486216545105,
1.5946575328670536e+18,0.0046064723283052444,0.029377900063991547,0.9923335909843445,-4.2401719838380814e-05,-0.0006728707812726498,0.0015711672604084015,
1.5946575328712381e+18,0.003636688692495227,0.02913510985672474,0.994283139705658,0.0014722845517098904,0.0020585772581398487,0.000346500426530838,
1.594657532875561e+18,0.0058187018148601055,0.029377900063991547,0.9930647015571594,0.0005513144424185157,0.00113268056884408,-0.0011707395315170288,
1.5946575328797514e+18,0.005091364029794931,0.029620693996548653,0.9935520887374878,0.0008495474467054009,-0.0019054976291954517,0.002473488450050354,
1.5946575328838917e+18,0.006061147898435593,0.02986348792910576,0.9969637989997864,0.0014481404796242714,-0.0024952171370387077,0.00033263862133026123,
1.5946575328881894e+18,0.0029093509074300528,0.0276783537119627,0.9928209781646729,-0.0003812245558947325,0.000857276376336813,2.697855234146118e-05,
1.594657532892383e+18,0.004364026710391045,0.028649523854255676,0.9952579140663147,0.0002277109306305647,0.0029701334424316883,-0.0008818432688713074,
1.594657532896598e+18,0.007273377384990454,0.028649523854255676,0.9972074627876282,0.000528663513250649,0.0008251131512224674,0.00033702701330184937,
1.594657532900964e+18,0.0058187018148601055,0.0276783537119627,0.9967200756072998,0.0023414166644215584,0.0011210455559194088,0.0012427940964698792,
1.5946575329051336e+18,0.007030931767076254,0.030349070206284523,0.991358757019043,-0.0004040526691824198,-0.0007055709138512611,-0.0002819821238517761,
1.5946575329092984e+18,0.00630359398201108,0.028163937851786613,0.9911150336265564,-0.002823584945872426,-0.0019111055880784988,0.0012347176671028137,
1.5946575329136046e+18,0.006061147898435593,0.028163937851786613,0.9928209781646729,-0.0009826614987105131,-0.0009864484891295433,0.0009214766323566437,
1.594657532917899e+18,0.0041215806268155575,0.028163937851786613,0.9925772547721863,0.0014485239516943693,-6.95609487593174e-05,0.002125196158885956,
1.5946575329220895e+18,0.0053338101133704185,0.0276783537119627,0.9930647015571594,0.002344949170947075,0.00023388909175992012,0.0027130693197250366,
1.5946575329262728e+18,0.0058187018148601055,0.029377900063991547,0.9955016374588013,0.0008109138580039144,-7.094210013747215e-05,0.0017816722393035889,
1.5946575329304458e+18,0.00654603959992528,0.028892317786812782,0.9976949095726013,0.0029241610318422318,0.0014439835213124752,-0.0012619569897651672,
1.5946575329348017e+18,0.0046064723283052444,0.028892317786812782,0.9957453608512878,0.0028995885513722897,0.0017347154207527637,0.000565841794013977,
1.5946575329390006e+18,0.00315179699100554,0.026464389637112617,0.994283139705658,0.0022694901563227177,0.002931601833552122,0.004195481538772583,
1.5946575329431519e+18,0.00630359398201108,0.028649523854255676,0.9930647015571594,0.0010389549424871802,0.0029069664888083935,-7.990002632141113e-05,
1.5946575329475036e+18,0.00630359398201108,0.028892317786812782,0.9937956929206848,0.0004244924057275057,0.0019739405252039433,-0.0003820955753326416,
1.5946575329516974e+18,0.007273377384990454,0.027435559779405594,0.994283139705658,0.0010266570607200265,0.0007458892650902271,0.0002268478274345398,
1.5946575329558712e+18,0.0046064723283052444,0.02694997750222683,0.9935520887374878,0.0010180296376347542,-0.0010775746777653694,0.0011335387825965881,
1.594657532960176e+18,0.0046064723283052444,0.027435559779405594,0.9955016374588013,-0.0011105869198217988,-0.0007656533271074295,0.001124013215303421,
1.5946575329643328e+18,0.005576256196945906,0.029377900063991547,0.9935520887374878,-0.002312718192115426,0.001057976856827736,-9.689852595329285e-05,
1.594657532968657e+18,0.004848918411880732,0.025978805497288704,0.9952579140663147,-0.002293283585458994,0.0001404876820743084,0.0005096495151519775,
1.5946575329728287e+18,0.00654603959992528,0.027192767709493637,0.9974511861801147,-0.001062548253685236,-0.00198075408115983,0.0020196959376335144,
1.594657532977129e+18,0.004364026710391045,0.02694997750222683,0.9923335909843445,-0.0007507533300668001,-0.0037813051603734493,-0.000420205295085907,
1.594657532981314e+18,0.008243161253631115,0.028892317786812782,0.9937956929206848,0.0013756172265857458,-0.0010237358510494232,-0.0010224021971225739,
1.5946575329854858e+18,0.006061147898435593,0.028649523854255676,0.9911150336265564,-0.00015027238987386227,0.0008020629175007343,-0.0019224099814891815,
1.5946575329898148e+18,0.0046064723283052444,0.026464389637112617,0.9920898675918579,-0.0016633395571261644,0.0004924568347632885,-0.0019062571227550507,
1.5946575329940001e+18,0.005091364029794931,0.02694997750222683,0.994283139705658,-0.002557959407567978,0.0010940507054328918,-0.002193104475736618,
1.5946575329981834e+18,0.006061147898435593,0.02913510985672474,0.9947705268859863,0.00018932949751615524,-0.00164093729108572,-5.461648106575012e-05,
1.5946575330025172e+18,0.004848918411880732,0.029377900063991547,0.9976949095726013,0.0013992025051265955,-0.00011281808838248253,-0.0006598867475986481,
1.5946575330066716e+18,0.003879134776070714,0.027192767709493637,0.9937956929206848,-0.0013383491896092892,-0.00011187000200152397,-0.0009572058916091919,
1.5946575330109696e+18,0.0058187018148601055,0.029620693996548653,0.9930647015571594,-0.0010242366697639227,0.0004948019050061703,-0.0015548951923847198,
1.5946575330151977e+18,0.005576256196945906,0.029377900063991547,0.9940394163131714,-0.0004098978824913502,0.0026107062585651875,0.002395428717136383,
1.5946575330194534e+18,0.006061147898435593,0.02694997750222683,0.9920898675918579,0.0014107425231486559,0.0010744375176727772,0.002678167074918747,
1.5946575330236582e+18,0.005576256196945906,0.0276783537119627,0.9916024804115295,-0.00041830819100141525,0.0010654088109731674,0.00023273378610610962,
1.5946575330278508e+18,0.005576256196945906,0.02694997750222683,0.9959890246391296,0.001402402762323618,-0.0031836680136621,-0.0006778165698051453,
1.5946575330320422e+18,0.004848918411880732,0.028163937851786613,0.9916024804115295,0.0010877518216148019,0.00017461087554693222,-0.00036925822496414185,
1.5946575330363494e+18,0.0041215806268155575,0.027435559779405594,0.9955016374588013,0.00017001316882669926,0.0010817418806254864,-0.0009718835353851318,
1.5946575330404933e+18,0.006788485683500767,0.030106279999017715,0.9957453608512878,-0.0016486113891005516,0.001072651706635952,0.0008534751832485199,
1.5946575330447183e+18,0.006061147898435593,0.030106279999017715,0.9952579140663147,-0.00012042769230902195,0.0016693691723048687,0.0011491701006889343,
1.594657533048924e+18,0.005091364029794931,0.026464389637112617,0.9976949095726013,0.0007891821442171931,-0.0007675867527723312,0.001139514148235321,
1.5946575330532552e+18,0.00630359398201108,0.028163937851786613,0.9940394163131714,-0.001337511232122779,-0.0025783320888876915,0.0014328062534332275,
1.5946575330574528e+18,0.004848918411880732,0.028649523854255676,0.994283139705658,-0.001326271565631032,0.0016834577545523643,0.0014207661151885986,
1.5946575330616266e+18,0.006061147898435593,0.028892317786812782,0.9930647015571594,-0.000406528590247035,-0.0010564825497567654,0.00019736215472221375,
1.594657533065884e+18,0.006061147898435593,0.030349070206284523,0.9955016374588013,0.0014140834100544453,-0.0004418720491230488,0.0004985705018043518,
1.5946575330702019e+18,0.0046064723283052444,0.02913510985672474,0.9940394163131714,0.0004936024779453874,-0.0007410249672830105,-0.0007170811295509338,
1.5946575330744156e+18,0.004364026710391045,0.02840672992169857,0.9969637989997864,0.0035181143321096897,-0.0007347976788878441,-0.0019225217401981354,
1.594657533078615e+18,0.005576256196945906,0.02694997750222683,0.9918461441993713,-0.0010544389951974154,-0.0031515508890151978,-8.917227387428284e-05,
1.5946575330827756e+18,0.0033942428417503834,0.0276783537119627,0.9918461441993713,-0.00134844402782619,-0.0025193351320922375,-0.0006941519677639008,
1.5946575330870984e+18,0.0046064723283052444,0.028892317786812782,0.9950142502784729,-0.00012564891949295998,-0.0012867003679275513,-0.0012940503656864166,
1.5946575330912768e+18,0.00315179699100554,0.02840672992169857,0.990384042263031,-0.0007303250022232533,0.0005413079634308815,-0.0012831762433052063,
1.5946575330956173e+18,0.004364026710391045,0.028163937851786613,0.9930647015571594,0.0007901418721303344,-6.897281855344772e-05,-6.0930848121643066e-05,
1.594657533099795e+18,0.0058187018148601055,0.025736013427376747,0.9940394163131714,-0.0013365596532821655,-0.0018855887465178967,-0.0024833455681800842,
1.5946575331039396e+18,0.006061147898435593,0.02694997750222683,0.9962327480316162,0.0023090634495019913,-0.0015668775886297226,0.0005661807954311371,
1.5946575331083118e+18,0.007273377384990454,0.030106279999017715,0.9940394163131714,0.0025925254449248314,-0.000947978813201189,0.0005614235997200012,
1.5946575331124838e+18,0.003879134776070714,0.028163937851786613,0.9969637989997864,0.00014781183563172817,-0.0006371466442942619,-0.000654757022857666,
1.5946575331166874e+18,0.0029093509074300528,0.028163937851786613,0.9950142502784729,0.001358033623546362,0.0008825375698506832,-0.0018607191741466522,
1.594657533120879e+18,0.0046064723283052444,0.026707183569669724,0.9923335909843445,0.0013466216623783112,0.0002693887799978256,-0.0009364858269691467,
1.594657533125243e+18,0.005576256196945906,0.028649523854255676,0.9928209781646729,0.0016381714958697557,-0.0033672661520540714,-0.00032288581132888794,
1.5946575331294423e+18,0.00654603959992528,0.02840672992169857,0.9937956929206848,-0.00019279052503407001,-0.0027332380414009094,-0.0018345005810260773,
1.5946575331335703e+18,0.0058187018148601055,0.029377900063991547,0.9911150336265564,-0.0004940363578498363,-0.0008930740877985954,0.0021181702613830566,
1.594657533137898e+18,0.0046064723283052444,0.028649523854255676,0.9962327480316162,-0.0010956167243421078,-0.00027983682230114937,0.001797504723072052,
1.5946575331420762e+18,0.003879134776070714,0.028892317786812782,0.9979385733604431,-0.0013892757706344128,-0.0005803513340651989,0.0002680681645870209,
1.5946575331462822e+18,0.006061147898435593,0.028163937851786613,0.994283139705658,-0.0007718692068010569,-0.0014840723015367985,-0.0027628429234027863,
1.5946575331506243e+18,0.005091364029794931,0.028892317786812782,0.994283139705658,0.00014321482740342617,-0.0008658692240715027,-0.0009224303066730499,
1.5946575331548247e+18,0.006788485683500767,0.028892317786812782,0.9937956929206848,0.00195920723490417,0.002472932916134596,-0.002126142382621765,
1.594657533159006e+18,0.0058187018148601055,0.02913510985672474,0.9972074627876282,0.0022456091828644276,2.92239710688591e-05,-0.0008968114852905273,
1.5946575331632952e+18,0.00654603959992528,0.029620693996548653,0.9918461441993713,0.0019238726235926151,-0.0011824853718280792,0.0018365159630775452,
1.5946575331674383e+18,0.00654603959992528,0.02913510985672474,0.9916024804115295,-0.00021235609892755747,-0.0005668164230883121,0.0003067515790462494,
1.5946575331716296e+18,0.0053338101133704185,0.02840672992169857,0.9898965954780579,0.0006980262696743011,4.3678563088178635e-05,-0.0006044209003448486,
1.594657533175951e+18,0.0053338101133704185,0.027921147644519806,0.9937956929206848,0.004326552152633667,0.004283434711396694,-0.000599343329668045,
1.5946575331801203e+18,0.006061147898435593,0.031077450141310692,0.9955016374588013,0.0030787307769060135,0.002733110450208187,-0.0012000389397144318,
1.5946575331844342e+18,0.006061147898435593,0.029620693996548653,0.9979385733604431,0.0015385291771963239,0.0005900808610022068,-0.00240141898393631,
1.5946575331886287e+18,0.0053338101133704185,0.02840672992169857,0.9976949095726013,-0.0012001933064311743,0.0005851220339536667,0.00034455209970474243,
1.5946575331927918e+18,0.006061147898435593,0.028163937851786613,0.9952579140663147,-0.000887241680175066,-0.00244845449924469,3.879144787788391e-05,
1.5946575331971028e+18,0.0053338101133704185,0.026707183569669724,0.9952579140663147,-0.0005769198760390282,-0.0024278792552649975,-0.0005672648549079895,
1.5946575332012938e+18,0.0046064723283052444,0.028892317786812782,0.9930647015571594,-0.0020864014513790607,0.0015297802165150642,-0.0011682286858558655,
1.5946575332056335e+18,0.006788485683500767,0.028892317786812782,0.9928209781646729,-0.0014631367521360517,0.00030546123161911964,-0.004489939659833908,
1.5946575332098235e+18,0.00654603959992528,0.02694997750222683,0.9962327480316162,0.0012749521993100643,0.0021200901828706264,-0.0017264150083065033,
1.5946575332140068e+18,0.0053338101133704185,0.0276783537119627,0.9986696839332581,0.0018699702341109514,-0.0021378491073846817,0.0013167522847652435,
1.5946575332183386e+18,0.005576256196945906,0.029377900063991547,0.9952579140663147,3.706035204231739e-05,-0.0015141521580517292,0.0003970898687839508,
1.5946575332224914e+18,0.0053338101133704185,0.028892317786812782,0.9935520887374878,0.0003396149259060621,1.2901611626148224e-05,0.00039375200867652893,
1.594657533226808e+18,0.005091364029794931,0.026464389637112617,0.9952579140663147,-0.00026897096540778875,0.0018299887888133526,0.0012990422546863556,
1.5946575332309125e+18,0.003879134776070714,0.028649523854255676,0.9933083653450012,3.615522291511297e-05,0.002420342992991209,7.666274905204773e-05,
1.5946575332352287e+18,0.005091364029794931,0.027192767709493637,0.9940394163131714,0.0015501813031733036,-2.2924039512872696e-05,7.601827383041382e-05,
1.5946575332394499e+18,0.0053338101133704185,0.02840672992169857,0.9937956929206848,0.0042629484087228775,0.0005830004811286926,-0.0011360831558704376,
1.594657533243673e+18,0.004364026710391045,0.027435559779405594,0.9937956929206848,0.0005927335005253553,0.003001028671860695,-0.0008236691355705261,
1.5946575332479224e+18,0.005576256196945906,0.027435559779405594,0.9981822967529297,-0.0030466390307992697,-0.0009614476002752781,0.0010004453361034393,
1.5946575332521027e+18,0.00315179699100554,0.028892317786812782,0.9974511861801147,-0.0024153050035238266,-0.0009533683769404888,0.0022035017609596252,
1.594657533256266e+18,0.006061147898435593,0.029620693996548653,0.9981822967529297,-0.002395008457824588,0.0002661067992448807,0.0024878494441509247,
1.5946575332605857e+18,0.005576256196945906,0.028649523854255676,0.9923335909843445,-0.00267774797976017,-0.0009475932456552982,-0.0002588517963886261,
1.5946575332647345e+18,0.007515823468565941,0.0276783537119627,0.9947705268859863,-0.003260978264734149,-3.103213384747505e-05,0.0006519220769405365,
1.5946575332690427e+18,0.0058187018148601055,0.0276783537119627,0.9923335909843445,-0.0011135131353512406,0.0008778264746069908,0.000646442174911499,
1.5946575332731825e+18,0.0033942428417503834,0.030106279999017715,0.991358757019043,0.0010159057565033436,-3.814836964011192e-05,0.0006410107016563416,
1.5946575332774943e+18,0.003879134776070714,0.027921147644519806,0.9911150336265564,0.004036028403788805,0.0023851003497838974,0.0015442222356796265,
1.594657533281789e+18,0.0058187018148601055,0.029620693996548653,0.9945268034934998,0.0012763184495270252,0.002062191255390644,0.0030455775558948517,
1.5946575332859387e+18,0.0046064723283052444,0.0276783537119627,0.9935520887374878,0.0003569952677935362,0.0002276659943163395,0.0018085204064846039,
1.5946575332902392e+18,0.005091364029794931,0.027192767709493637,0.9969637989997864,0.0009597272146493196,0.0005286191590130329,-2.3875385522842407e-05,
1.5946575332944658e+18,0.00315179699100554,0.026707183569669724,0.9976949095726013,0.00034593045711517334,0.0017356406897306442,-0.0006294026970863342,
1.5946575332986652e+18,0.004848918411880732,0.02694997750222683,0.9925772547721863,0.0009487553033977747,0.0011153239756822586,-0.0018355771899223328,
1.5946575333028646e+18,0.0046064723283052444,0.027192767709493637,0.9940394163131714,0.0006379166152328253,-0.0013169762678444386,-0.0006086863577365875,
1.5946575333070548e+18,0.0053338101133704185,0.028892317786812782,0.994283139705658,-0.0017903718398883939,-0.0028202389366924763,0.00030502304434776306,
1.5946575333113915e+18,0.0046064723283052444,0.03059186413884163,0.9925772547721863,-0.002683924278244376,-0.0018879412673413754,0.00030246004462242126,
1.5946575333155492e+18,0.004848918411880732,0.0276783537119627,0.9920898675918579,0.002184484852477908,-0.0018720761872828007,0.0009056515991687775,
1.594657533319836e+18,0.006061147898435593,0.0276783537119627,0.9937956929206848,0.003983323462307453,-0.0006448808126151562,0.00029230862855911255,
1.5946575333240195e+18,0.0046064723283052444,0.028163937851786613,0.9940394163131714,0.002738386392593384,-0.0021537914872169495,-0.0009216070175170898,
1.5946575333282148e+18,0.0033942428417503834,0.028163937851786613,0.9952579140663147,-0.0006161507917568088,0.00028723524883389473,-0.0006109960377216339,
1.594657533332556e+18,0.0053338101133704185,0.027435559779405594,0.9937956929206848,-0.000913838972337544,0.0011934200301766396,0.0012113302946090698,
1.594657533336733e+18,0.0058187018148601055,0.02840672992169857,0.9940394163131714,0.0018196339951828122,0.0011833910830318928,-0.0006160438060760498,
1.5946575333410422e+18,0.005576256196945906,0.02840672992169857,0.9947705268859863,0.004530136473476887,0.0008705803193151951,0.00241779163479805,
1.594657533345225e+18,0.00654603959992528,0.028892317786812782,0.9955016374588013,0.000554810743778944,-0.0006510652601718903,0.003003206104040146,
1.5946575333493834e+18,0.0046064723283052444,0.029620693996548653,0.9918461441993713,-0.0021756449714303017,-3.986246883869171e-05,0.0005550384521484375,
1.5946575333536018e+18,0.003879134776070714,0.029377900063991547,0.9930647015571594,-0.0027630943804979324,-0.000948125496506691,0.0008532404899597168,
1.5946575333579412e+18,0.00654603959992528,0.027435559779405594,0.9986696839332581,-0.003345607314258814,0.0014827693812549114,-0.0015768557786941528,
1.594657533362126e+18,0.00630359398201108,0.02986348792910576,0.9930647015571594,0.0021340944804251194,0.0005617113783955574,-0.002169337123632431,
1.5946575333663142e+18,0.003879134776070714,0.028892317786812782,0.9945268034934998,0.0012075630947947502,-0.0015630708076059818,-0.0012425072491168976,
1.5946575333706557e+18,0.006061147898435593,0.029620693996548653,0.9928209781646729,-0.001831244328059256,-0.0009442036971449852,-0.0012320652604103088,
1.594657533374845e+18,0.0058187018148601055,0.027435559779405594,0.9911150336265564,-0.002724453341215849,0.001789524219930172,-0.004250373691320419,
1.5946575333789967e+18,0.0053338101133704185,0.029377900063991547,0.9955016374588013,-0.0008843631949275732,0.0008658887818455696,-0.0011859945952892303,
1.5946575333833062e+18,0.003879134776070714,0.028649523854255676,0.9952579140663147,0.002454594010487199,0.00025288015604019165,3.5431236028671265e-05,
1.594657533387522e+18,0.0046064723283052444,0.02840672992169857,0.9937956929206848,0.0021311012096703053,-0.0009607085958123207,-0.0014791935682296753,
1.5946575333916864e+18,0.00315179699100554,0.02694997750222683,0.9945268034934998,0.001204594736918807,0.0017731580883264542,-0.0023753605782985687,
1.594657533395999e+18,0.0033942428417503834,0.028892317786812782,0.9967200756072998,0.00028587423730641603,-0.001270401757210493,-0.0008410699665546417,
1.5946575334001613e+18,0.003636688692495227,0.02840672992169857,0.9952579140663147,0.0021006676834076643,-0.001865458209067583,0.0018917880952358246,
1.594657533404479e+18,0.00630359398201108,0.029377900063991547,0.9964764714241028,0.0017801490612328053,-0.001546916551887989,0.0018758922815322876,
1.594657533408681e+18,0.003879134776070714,0.027192767709493637,0.9959890246391296,-0.0012634696904569864,-0.0009281854145228863,-0.0005627982318401337,
1.594657533412962e+18,0.0029093509074300528,0.027921147644519806,0.991358757019043,0.0020786733366549015,-1.1787284165620804e-05,0.0012591257691383362,
1.594657533417137e+18,0.0058187018148601055,0.026707183569669724,0.9945268034934998,0.0008497415110468864,-0.002737482078373432,0.0018542781472206116,
1.594657533421319e+18,0.00630359398201108,0.027921147644519806,0.9928209781646729,0.00023686897475272417,-0.002411611843854189,0.0012329630553722382,
1.594657533425638e+18,0.006788485683500767,0.028163937851786613,0.9967200756072998,-0.0012794513022527099,-0.00027128448709845543,-0.0015031881630420685,
1.59465753342981e+18,0.005576256196945906,0.027435559779405594,0.9969637989997864,0.0008513620123267174,0.0003367266617715359,-0.002399154007434845,
1.5946575334339948e+18,0.0058187018148601055,0.0276783537119627,0.9955016374588013,0.0008442077087238431,0.0024539590813219547,-0.0011675283312797546,
1.5946575334383363e+18,0.0041215806268155575,0.028892317786812782,0.9940394163131714,-0.0012829480692744255,0.0003132754936814308,0.0006594769656658173,
1.594657533442483e+18,0.0046064723283052444,0.027921147644519806,0.9962327480316162,-0.002483631018549204,0.001219241414219141,0.0018653981387615204,
1.59465753344679e+18,0.0026669050566852093,0.029377900063991547,0.9908714294433594,0.000868765520863235,-0.0012139324098825455,-0.0008760690689086914,
1.5946575334509906e+18,0.003636688692495227,0.0276783537119627,0.9925772547721863,0.00025573314633220434,-0.0009008655324578285,-0.0008687078952789307,
1.5946575334551631e+18,0.0046064723283052444,0.02913510985672474,0.991358757019043,-0.00035214785020798445,0.001832498237490654,-0.0017700046300888062,
1.5946575334594967e+18,0.004848918411880732,0.02913510985672474,0.9933083653450012,-0.0009549205424264073,0.003028562758117914,-0.0005436651408672333,
1.5946575334636595e+18,0.0058187018148601055,0.0276783537119627,0.9930647015571594,-3.829819615930319e-05,0.0017916490323841572,-0.0008419640362262726,
1.5946575334678426e+18,0.005091364029794931,0.0276783537119627,0.9937956929206848,-3.7976307794451714e-05,0.0011708615347743034,-0.00022916123270988464,
1.594657533472144e+18,0.00315179699100554,0.028649523854255676,0.9955016374588013,-3.7657213397324085e-05,-0.0009590396657586098,-0.0011358298361301422,
1.594657533476422e+18,0.004364026710391045,0.028892317786812782,0.9950142502784729,0.0011741230264306068,-0.0006481143645942211,-0.0008234195411205292,
1.594657533480611e+18,0.004364026710391045,0.027192767709493637,0.9950142502784729,-0.002470135223120451,-0.0009455340914428234,-0.0008165016770362854,
1.5946575334849047e+18,0.0046064723283052444,0.029620693996548653,0.9918461441993713,-0.0012379137333482504,-0.0006347224116325378,-0.0002039112150669098,
1.594657533489047e+18,0.0046064723283052444,0.028892317786812782,0.9923335909843445,-0.001530377077870071,-0.001235120464116335,0.0016149990260601044,
1.5946575334933135e+18,0.00630359398201108,0.028163937851786613,0.9935520887374878,-0.0018203828949481249,0.0015010517090559006,8.709728717803955e-05,
1.5946575334974362e+18,0.00630359398201108,0.02840672992169857,0.994283139705658,-0.0015022193547338247,-0.001843087375164032,0.00038923323154449463,
1.5946575335017485e+18,0.0026669050566852093,0.02694997750222683,0.9923335909843445,0.0009333319030702114,-0.00213046558201313,-0.00021976977586746216,
1.594657533506037e+18,0.004848918411880732,0.02694997750222683,0.9974511861801147,0.0006226229015737772,-0.001809696201235056,0.001296408474445343,
1.5946575335102016e+18,0.007515823468565941,0.027192767709493637,0.9989133477210999,-0.0011998049449175596,-0.0011887568980455399,0.00037691742181777954,
1.59465753351455e+18,0.00630359398201108,0.030106279999017715,0.9957453608512878,-0.0008868565782904625,-0.0014816336333751678,0.0015852153301239014,
1.5946575335187272e+18,0.005576256196945906,0.028892317786812782,0.9957453608512878,-0.0033023320138454437,-0.0014691827818751335,0.001269027590751648,
1.5946575335228997e+18,0.0029093509074300528,0.028163937851786613,0.9923335909843445,-0.0008516532834619284,-0.0023654340766370296,-0.0002559684216976166,
1.5946575335271908e+18,0.0053338101133704185,0.028649523854255676,0.9933083653450012,6.410130299627781e-05,-0.0002254946157336235,4.904717206954956e-05,
1.5946575335314647e+18,0.0058187018148601055,0.028163937851786613,0.9928209781646729,6.356264930218458e-05,0.002805060241371393,-0.0002542324364185333,
1.594657533535651e+18,0.003879134776070714,0.0276783537119627,0.9937956929206848,0.0009716263739392161,0.003387219738215208,0.0009593702852725983,
1.5946575335398193e+18,0.007030931767076254,0.027435559779405594,0.9947705268859863,-0.0014594661770388484,0.0006329622119665146,4.2710453271865845e-05,
1.5946575335440307e+18,0.004848918411880732,0.02913510985672474,0.9979385733604431,-0.0008414698531851172,-0.0011895522475242615,-0.0020777061581611633,
1.5946575335482348e+18,0.003879134776070714,0.02840672992169857,0.9950142502784729,-0.0011372646549716592,0.0003347732126712799,-0.0008487813174724579,
1.5946575335525663e+18,0.0021820133551955223,0.02694997750222683,0.9937956929206848,-0.00021911005023866892,0.00033196015283465385,-0.00023591890931129456,
1.5946575335567636e+18,0.00630359398201108,0.028892317786812782,0.9962327480316162,-0.0020344643853604794,2.6304740458726883e-05,-0.00023393705487251282,
1.5946575335609626e+18,0.0033942428417503834,0.028892317786812782,0.9933083653450012,-0.0005030384054407477,-0.0036083078011870384,-0.00023197010159492493,
1.5946575335653125e+18,0.0058187018148601055,0.028649523854255676,0.9928209781646729,-0.00019594526384025812,0.0018736012279987335,-0.0008357502520084381,
1.594657533569457e+18,0.0053338101133704185,0.027192767709493637,0.991358757019043,-0.002314360346645117,-0.000867936760187149,0.0003827325999736786,
1.5946575335737682e+18,0.003879134776070714,0.02622159756720066,0.9959890246391296,-0.0025977776385843754,0.0006536869332194328,-0.00022621452808380127,
1.594657533577963e+18,0.004848918411880732,0.027921147644519806,0.9952579140663147,-0.00015302002429962158,-0.0005632699467241764,0.0006842836737632751,
1.5946575335821455e+18,0.005091364029794931,0.028892317786812782,0.9957453608512878,0.0022711935453116894,0.0012586596421897411,0.00067853182554245,
1.594657533586471e+18,0.007030931767076254,0.02913510985672474,0.9933083653450012,-0.0004736857954412699,0.0009452165104448795,0.00036996230483055115,
1.5946575335906586e+18,0.005091364029794931,0.026707183569669724,0.9945268034934998,0.003770418232306838,0.003663067240267992,0.0012754537165164948,
1.5946575335948332e+18,0.004848918411880732,0.02840672992169857,0.9930647015571594,0.0019215382635593414,0.0009064916521310806,0.0024762004613876343,
1.5946575335991327e+18,0.004848918411880732,0.029620693996548653,0.9928209781646729,0.0016025250079110265,-0.0006154556758701801,0.0012439265847206116,
1.5946575336032676e+18,0.004848918411880732,0.028649523854255676,0.9920898675918579,-0.0011367351980879903,0.0021155099384486675,-0.0005837194621562958,
1.594657533607476e+18,0.004848918411880732,0.027921147644519806,0.9940394163131714,0.0012957449071109295,0.0011891350150108337,-0.0002759508788585663,
1.5946575336117873e+18,0.004364026710391045,0.028649523854255676,0.9940394163131714,0.0015877222176641226,0.001179142389446497,-0.0005764961242675781,
1.594657533615971e+18,0.00630359398201108,0.02913510985672474,0.9967200756072998,-0.00024281581863760948,-0.0003450964577496052,0.001245543360710144,
1.5946575336202906e+18,0.004848918411880732,0.02913510985672474,0.9974511861801147,-0.002663702704012394,-0.002159392461180687,0.0030522719025611877,
1.5946575336244846e+18,0.005091364029794931,0.028649523854255676,0.9928209781646729,-0.004155648872256279,-0.0012326482683420181,-0.0003049038350582123,
1.594657533628673e+18,0.007273377384990454,0.027435559779405594,0.9945268034934998,-0.0001834698487073183,-0.0012222900986671448,5.252659320831299e-07,
1.5946575336329828e+18,0.005576256196945906,0.027921147644519806,0.9952579140663147,-0.00018192804418504238,-0.00030342070385813713,0.0006062537431716919,
1.5946575336371205e+18,0.005576256196945906,0.02913510985672474,0.9925772547721863,-0.00018039927817881107,0.00030486052855849266,-0.0009131692349910736,
1.594657533641419e+18,0.005576256196945906,0.027921147644519806,0.9950142502784729,0.0010325805051252246,-0.0009091650135815144,0.0003059655427932739,
1.5946575336455657e+18,0.0053338101133704185,0.028163937851786613,0.994283139705658,0.001326769357547164,-0.0012043905444443226,0.0003033950924873352,
1.594657533649896e+18,0.0033942428417503834,0.0276783537119627,0.9947705268859863,0.003435681574046612,-0.0011942693963646889,-0.0006077475845813751,
1.594657533654072e+18,0.004848918411880732,0.030349070206284523,0.9947705268859863,7.528485730290413e-05,-0.00027563562616705894,-0.0018141046166419983,
1.5946575336582776e+18,0.00654603959992528,0.027192767709493637,0.9972074627876282,-0.0005310795968398452,-0.0008790516294538975,0.0015326626598834991,
1.5946575336625626e+18,0.008485606871545315,0.027921147644519806,0.9967200756072998,0.0003819811390712857,-0.0014773965813219547,0.0006111860275268555,
1.5946575336667543e+18,0.0046064723283052444,0.027192767709493637,0.9945268034934998,-0.0038613523356616497,-0.0017678472213447094,-0.0012111440300941467,
1.5946575336710774e+18,0.004848918411880732,0.028649523854255676,0.991358757019043,-0.002617439953610301,-0.00023866165429353714,-0.0012009665369987488,
1.594657533675244e+18,0.005576256196945906,0.029377900063991547,0.9930647015571594,-0.0013839809689670801,-0.0002366560511291027,-0.0008880086243152618,
1.594657533679427e+18,0.005091364029794931,0.02840672992169857,0.9940394163131714,0.0007477108156308532,-0.0011432655155658722,0.0009366460144519806,
1.5946575336837568e+18,0.006788485683500767,0.027921147644519806,0.9974511861801147,0.004375819116830826,-0.000527926255017519,0.0018373727798461914,
1.594657533687944e+18,0.006061147898435593,0.028892317786812782,0.9984260201454163,0.0034304496366530657,0.0018994375132024288,0.0006104670464992523,
1.5946575336922404e+18,0.00654603959992528,0.028649523854255676,0.9928209781646729,0.0021901584696024656,0.0009748782031238079,-0.0003032609820365906,
1.5946575336963825e+18,0.008970499038696289,0.02913510985672474,0.994283139705658,0.0018688878044486046,0.0009666858240962029,-0.002117905765771866,
1.5946575337007076e+18,0.005576256196945906,0.02913510985672474,0.9918461441993713,-0.0014783425722271204,0.0018671602010726929,0.0009285509586334229,
1.594657533704886e+18,0.005576256196945906,0.027435559779405594,0.9918461441993713,-0.0014659195439890027,3.427406772971153e-05,-0.0005935803055763245,
1.5946575337091456e+18,0.004364026710391045,0.027435559779405594,0.9916024804115295,6.072875112295151e-05,-0.0011774776503443718,-0.0014971904456615448,
1.594657533713319e+18,0.007758269552141428,0.0276783537119627,0.9930647015571594,0.001877414295449853,-0.0005618510767817497,-0.0008788779377937317,
1.5946575337175068e+18,0.006788485683500767,0.029377900063991547,0.9952579140663147,-0.0005612899549305439,4.860199987888336e-05,0.002157166600227356,
1.594657533721825e+18,0.0033942428417503834,0.028892317786812782,0.9981822967529297,0.0015634885057806969,4.8193614929914474e-05,-0.0002838894724845886,
1.5946575337259843e+18,0.0046064723283052444,0.028163937851786613,0.9986696839332581,0.001247484004124999,0.00035065412521362305,-0.002098698168992996,
1.5946575337303196e+18,0.005091364029794931,0.029377900063991547,0.9947705268859863,0.0021455988753587008,0.0015591713599860668,-0.0005667321383953094,
1.5946575337344893e+18,0.00630359398201108,0.0276783537119627,0.9986696839332581,7.506809197366238e-06,3.173947334289551e-05,-0.0008648373186588287,
1.5946575337386706e+18,0.007030931767076254,0.02694997750222683,0.9957453608512878,0.0006131756817921996,3.147264942526817e-05,-0.0014633014798164368,
1.5946575337430106e+18,0.005091364029794931,0.029377900063991547,0.9940394163131714,0.0021223528310656548,0.0015455377288162708,0.0018805190920829773,
1.5946575337472448e+18,0.0053338101133704185,0.028163937851786613,0.9935520887374878,0.001498785917647183,0.002138282172381878,0.000956118106842041,
1.5946575337514348e+18,0.0053338101133704185,0.02622159756720066,0.9947705268859863,-2.813886385411024e-05,0.0024231798015534878,-0.0002633817493915558,
1.5946575337556598e+18,0.0058187018148601055,0.0276783537119627,0.9947705268859863,-0.003662293776869774,0.00028275465592741966,-0.003289826214313507,
1.594657533759851e+18,0.004848918411880732,0.030349070206284523,0.9986696839332581,-0.00544871436432004,-0.003656878601759672,-0.0038679130375385284,
1.5946575337641316e+18,0.0046064723283052444,0.028892317786812782,0.9955016374588013,-0.0020714006386697292,-0.002111818641424179,-0.0011096149682998657,
1.5946575337683459e+18,0.006061147898435593,0.028649523854255676,0.994283139705658,6.606755778193474e-05,-0.000882608350366354,0.00011117011308670044,
1.5946575337725394e+18,0.00630359398201108,0.02694997750222683,0.9957453608512878,0.0003683784743770957,-0.0005723251961171627,-0.00019263103604316711,
1.5946575337768845e+18,0.004364026710391045,0.028163937851786613,0.9962327480316162,0.0027882105205208063,0.0021582776680588722,-0.0007967427372932434,
1.594657533781041e+18,0.004364026710391045,0.027435559779405594,0.9935520887374878,0.003976244013756514,0.0027458732947707176,-0.0007900483906269073,
1.594657533785325e+18,0.00630359398201108,0.029377900063991547,0.9916024804115295,0.0021256343461573124,-2.995133399963379e-06,-0.0007834099233150482,
1.5946575337894694e+18,0.007273377384990454,0.027192767709493637,0.9935520887374878,0.0005934421205893159,-0.0015173000283539295,-0.0019882917404174805,
1.5946575337936643e+18,0.0053338101133704185,0.028649523854255676,0.9962327480316162,0.002708517014980316,-0.00029308535158634186,0.00014847517013549805,
1.594657533797984e+18,0.006061147898435593,0.028649523854255676,0.9950142502784729,0.000262828660197556,-0.0011992203071713448,0.0010558255016803741,
1.5946575338022487e+18,0.004364026710391045,0.030349070206284523,0.9957453608512878,-0.00064797792583704,-0.0014920090325176716,0.00044121965765953064,
1.594657533806512e+18,0.004848918411880732,0.02913510985672474,0.9928209781646729,0.0026889927685260773,0.0024577868171036243,0.00013464689254760742,
1.5946575338106427e+18,0.005576256196945906,0.02986348792910576,0.9923335909843445,0.0002434685593470931,1.4204997569322586e-05,0.000133514404296875,
1.5946575338148849e+18,0.005576256196945906,0.030349070206284523,0.9918461441993713,-0.0012729071313515306,-0.0002887798473238945,0.00013239309191703796,
1.594657533819091e+18,0.0041215806268155575,0.028892317786812782,0.9933083653450012,-0.0018679425120353699,0.0015308419242501259,-0.0010801814496517181,
1.594657533823424e+18,0.005576256196945906,0.028649523854255676,0.9952579140663147,-0.0006407815963029861,0.001820843666791916,-0.0010711029171943665,
