,0x6f61,0x6f61,0x6f61,0x6f61,0x6f61,0x6f61,0x6f61,0x6f61,0x6f61,0x6f61,0x6f61,0x6f61,0x6f61,0x6f61,0x6f61,0x6f61,
Timestamp (ns),Accel_x (mg), Accel_y (mg), Accel_z (mg),Gyro_x (deg/s), Gyro_y (deg/s), Gyro_z (deg/s),Mag_x (uT), Mag_y (uT), Mag_z (uT),Quat_w, Quat_x, Quat_y, Quat_z,Pressure (Pa),Range to 0x6a25 (mm),RSS to 0x6a25 (dB),
1594840088925414148,24.0,-61.0,960.0,0.0,-0.0625,-0.1875,25.75,10.875,-72.5625,0.999258301630135,-0.03259247086919693,-0.020507622119944134,0.00012206917928538175,101664.5,173477,0,
1594840088959557772,22.0,-62.0,963.0,0.1875,0.0,-0.0625,25.0625,11.25,-72.25,0.999258301630135,-0.03259247086919693,-0.020507622119944134,0.00012206917928538175,101664.5,173477,0,
1594840088993146571,22.0,-62.0,962.0,0.125,-0.125,0.0,24.375,10.875,-73.375,0.999258301630135,-0.03259247086919693,-0.020507622119944134,0.00012206917928538175,101664.5,173477,0,
1594840089028160263,25.0,-64.0,959.0,0.125,0.0,-0.125,24.375,10.875,-73.375,0.999258301630135,-0.03259247086919693,-0.020507622119944134,0.00012206917928538175,101664.5,173477,0,
1594840089061665791,23.0,-63.0,962.0,0.1875,-0.1875,-0.0625,24.375,10.875,-72.5625,0.999258301630135,-0.03259247086919693,-0.020507622119944134,0.00012206917928538175,101665.25,173477,0,
1594840089097286228,23.0,-64.0,960.0,-0.0625,0.125,-0.0625,25.0625,10.875,-71.0625,0.999258301630135,-0.03259247086919693,-0.020507622119944134,0.00012206917928538175,101665.25,173477,0,
1594840089132256331,22.0,-63.0,962.0,0.0625,-0.0625,0.0,25.0625,10.875,-71.0625,0.999258301630135,-0.03259247086919693,-0.020507622119944134,0.00012206917928538175,101665.25,173477,0,
1594840089156761122,22.0,-63.0,960.0,0.0625,-0.125,0.0,24.75,10.875,-71.875,0.999258301630135,-0.03259247086919693,-0.020507622119944134,0.00012206917928538175,101665.25,173477,0,
1594840089182486771,21.0,-62.0,958.0,-0.125,0.0,0.0,24.75,10.875,-71.875,0.999258301630135,-0.03259247086919693,-0.020507622119944134,0.00012206917928538175,101665.25,173477,0,
1594840089207196626,22.0,-62.0,963.0,-0.0625,0.0625,0.125,24.75,10.1875,-72.5625,0.999258301630135,-0.03259247086919693,-0.020507622119944134,0.00012206917928538175,101665.25,173477,0,
1594840089234588145,22.0,-63.0,961.0,-0.125,0.1875,0.0625,24.75,10.1875,-72.5625,0.999258301630135,-0.03259247086919693,-0.020507622119944134,0.00012206917928538175,101665.25,173477,0,
1594840089268260759,26.0,-64.0,961.0,-0.0625,-0.125,0.0,25.375,10.875,-72.25,0.999258301630135,-0.03259247086919693,-0.020507622119944134,0.00012206917928538175,101665.25,173477,0,
1594840089302253119,23.0,-65.0,960.0,0.0625,0.1875,-0.0625,25.0625,11.5625,-72.5625,0.999258301630135,-0.03259247086919693,-0.020507622119944134,0.00012206917928538175,101665.25,131072,0,
1594840089336475648,22.0,-64.0,960.0,-0.0625,0.0,0.0,25.0625,11.5625,-72.5625,0.999258301630135,-0.03259247086919693,-0.020507622119944134,0.00012206917928538175,101665.25,131072,0,
1594840089371546978,22.0,-62.0,959.0,-0.125,-0.125,-0.0625,24.75,10.1875,-71.875,0.999258301630135,-0.03259247086919693,-0.020507622119944134,0.00012206917928538175,101665.25,131072,0,
1594840089406376018,23.0,-62.0,963.0,-0.125,0.0625,0.0,24.375,10.875,-71.875,0.999258301630135,-0.03259247086919693,-0.020507622119944134,0.00012206917928538175,101665.25,131072,0,
1594840089441706319,24.0,-64.0,959.0,0.0,0.0625,-0.125,24.375,10.875,-71.875,0.999258301630135,-0.03259247086919693,-0.020507622119944134,0.00012206917928538175,101663.5,131072,0,
1594840089476348273,21.0,-64.0,956.0,-0.1875,0.0,-0.125,25.0625,10.875,-71.875,0.999258301630135,-0.03259247086919693,-0.020507622119944134,0.00012206917928538175,101663.5,131072,0,
1594840089511471863,21.0,-63.0,961.0,0.0625,0.1875,-0.0625,25.375,11.25,-72.5625,0.999258301630135,-0.03259247086919693,-0.020507622119944134,0.00012206917928538175,101663.5,131072,0,
1594840089545525593,22.0,-63.0,961.0,-0.0625,0.0,0.0,25.375,10.875,-72.25,0.999258301630135,-0.03259247086919693,-0.020507622119944134,0.00012206917928538175,101663.5,131072,0,
1594840089579085581,22.0,-63.0,962.0,-0.0625,-0.125,-0.0625,25.375,10.875,-72.25,0.999258301630135,-0.03259247086919693,-0.020507622119944134,0.00012206917928538175,101663.5,131072,0,
1594840089611890489,23.0,-62.0,961.0,0.0,-0.0625,0.0,25.75,10.875,-72.25,0.999258301630135,-0.03259247086919693,-0.020507622119944134,0.00012206917928538175,101663.5,131072,0,
1594840089644726917,24.0,-63.0,961.0,0.0625,0.0625,0.125,25.0625,10.875,-72.25,0.999258301630135,-0.03259247086919693,-0.020507622119944134,0.00012206917928538175,101663.5,131072,0,
1594840089679855808,22.0,-64.0,961.0,0.0,0.0,0.0,25.0625,10.875,-72.25,0.999258301630135,-0.03259247086919693,-0.020507622119944134,0.00012206917928538175,101663.5,131072,0,
1594840089715883494,23.0,-63.0,961.0,-0.1875,-0.0625,0.0,25.0625,11.25,-71.875,0.999258301630135,-0.03259247086919693,-0.020507622119944134,0.00012206917928538175,101663.5,131072,0,
1594840089748562653,22.0,-65.0,960.0,-0.125,0.0,-0.0625,25.0625,11.25,-71.875,0.999258301630135,-0.03259247086919693,-0.020507622119944134,0.00012206917928538175,101663.5,131072,0,
1594840089781965366,22.0,-65.0,957.0,0.0625,-0.0625,0.0,25.0625,10.5625,-71.375,0.999258301630135,-0.03259247086919693,-0.020507622119944134,0.00012206917928538175,101663.5,131072,0,
1594840089814706148,22.0,-63.0,960.0,-0.1875,0.0625,-0.125,25.0625,10.1875,-71.875,0.999258301630135,-0.03259247086919693,-0.020507622119944134,0.00012206917928538175,101664.75,131072,0,
1594840089848835391,23.0,-61.0,961.0,-0.125,0.125,-0.125,25.0625,10.1875,-71.875,0.999258301630135,-0.03259247086919693,-0.020507622119944134,0.00012206917928538175,101664.75,131072,0,
1594840089882164912,23.0,-61.0,960.0,0.125,0.0625,-0.0625,24.375,11.25,-71.375,0.999258301630135,-0.03259247086919693,-0.020507622119944134,0.00012206917928538175,101664.75,131072,0,
1594840089914718860,22.0,-63.0,963.0,0.125,0.125,0.0,25.0625,10.5625,-71.375,0.999258301630135,-0.03259247086919693,-0.020507622119944134,0.00012206917928538175,101664.75,131072,0,
1594840089948177145,22.0,-63.0,960.0,-0.0625,0.0625,-0.125,25.0625,10.875,-73.0625,0.999258301630135,-0.03259247086919693,-0.020507622119944134,0.00012206917928538175,101664.75,131072,0,
1594840089988148536,22.0,-64.0,959.0,0.125,0.125,-0.125,25.0625,10.875,-73.0625,0.999258301630135,-0.03259247086919693,-0.020507622119944134,0.00012206917928538175,101664.75,131072,0,
1594840090020194756,22.0,-63.0,960.0,0.0,-0.125,0.125,24.75,11.25,-72.25,0.999258301630135,-0.03259247086919693,-0.020507622119944134,0.00012206917928538175,101664.75,131072,0,
1594840090052466250,21.0,-63.0,960.0,0.0,0.0,0.0625,24.75,11.25,-72.25,0.999258301630135,-0.03259247086919693,-0.020507622119944134,0.00012206917928538175,101664.75,131072,0,
1594840090084063162,22.0,-62.0,964.0,0.0625,-0.125,-0.125,24.75,11.25,-71.875,0.999258301630135,-0.03259247086919693,-0.020507622119944134,0.00012206917928538175,101664.75,131072,0,
1594840090118127510,24.0,-63.0,963.0,0.0625,-0.0625,-0.0625,24.375,11.25,-73.875,0.999258301630135,-0.03259247086919693,-0.020507622119944134,0.00012206917928538175,101664.75,131072,0,
1594840090150616515,25.0,-63.0,962.0,0.0,0.125,0.0,24.375,11.25,-73.875,0.999258301630135,-0.03259247086919693,-0.020507622119944134,0.00012206917928538175,101664.75,131072,0,
1594840090184196773,23.0,-63.0,958.0,0.0625,0.125,-0.0625,24.75,10.875,-73.0625,0.999258301630135,-0.03259247086919693,-0.020507622119944134,0.00012206917928538175,101664.25,131072,0,
1594840090218746035,23.0,-65.0,961.0,0.125,0.0,0.0625,24.75,10.875,-72.25,0.999258301630135,-0.03259247086919693,-0.020507622119944134,0.00012206917928538175,101664.25,131072,0,
1594840090252541949,22.0,-63.0,959.0,0.1875,0.25,0.0,25.0625,10.5625,-72.25,0.999258301630135,-0.03259247086919693,-0.020507622119944134,0.00012206917928538175,101664.25,131072,0,
1594840090289623000,22.0,-64.0,961.0,-0.0625,0.0,0.0,25.0625,10.5625,-72.25,0.999258301630135,-0.03259247086919693,-0.020507622119944134,0.00012206917928538175,101664.25,131072,0,
1594840090327813416,22.0,-62.0,961.0,0.0,-0.0625,0.0625,24.75,10.875,-73.0625,0.999258301630135,-0.03259247086919693,-0.020507622119944134,0.00012206917928538175,101664.25, , ,
1594840090361518740,22.0,-63.0,961.0,0.0625,0.0625,0.0,25.0625,10.875,-71.875,0.999258301630135,-0.03259247086919693,-0.020507622119944134,0.00012206917928538175,101664.25,131072,0,
1594840090395406128,22.0,-64.0,962.0,0.125,0.0,-0.0625,25.0625,10.875,-71.875,0.999258301630135,-0.03259247086919693,-0.020507622119944134,0.00012206917928538175,101664.25,131072,0,
1594840090428175310,25.0,-61.0,961.0,0.0,0.0,0.0,25.75,10.875,-72.25,0.999258301630135,-0.03259247086919693,-0.020507622119944134,0.00012206917928538175,101664.25,131072,0,
1594840090462607046,22.0,-63.0,960.0,0.0625,-0.1875,0.0,25.75,11.25,-71.375,0.999258301630135,-0.03259247086919693,-0.020507622119944134,0.00012206917928538175,101664.25,131072,0,
1594840090496816331,24.0,-63.0,961.0,0.0625,0.0625,0.0,25.75,11.25,-71.375,0.999258301630135,-0.03259247086919693,-0.020507622119944134,0.00012206917928538175,101664.25,131072,0,
1594840090531216368,23.0,-63.0,959.0,0.1875,0.125,0.0625,24.75,10.5625,-72.25,0.999258301630135,-0.03259247086919693,-0.020507622119944134,0.00012206917928538175,101664.25,131072,0,
1594840090565189058,22.0,-63.0,963.0,0.125,0.0,0.0,25.75,11.25,-71.875,0.999258301630135,-0.03259247086919693,-0.020507622119944134,0.00012206917928538175,101664.0,131072,0,
1594840090598879116,23.0,-62.0,961.0,0.0625,-0.1875,0.0625,25.75,11.25,-71.875,0.999258301630135,-0.03259247086919693,-0.020507622119944134,0.00012206917928538175,101664.0,131072,0,
1594840090631901733,24.0,-60.0,963.0,0.125,0.125,0.0625,25.375,10.875,-73.0625,0.999258301630135,-0.03259247086919693,-0.020507622119944134,0.00012206917928538175,101664.0,131072,0,
1594840090666205727,22.0,-62.0,960.0,0.0625,-0.0625,0.0625,25.0625,11.6875,-71.875,0.999258301630135,-0.03259247086919693,-0.020507622119944134,0.00012206917928538175,101664.0,131072,0,
1594840090698720843,22.0,-63.0,960.0,-0.125,0.0625,0.125,25.0625,11.6875,-71.875,0.999258301630135,-0.03259247086919693,-0.020507622119944134,0.00012206917928538175,101664.0,131072,0,
1594840090731477112,24.0,-60.0,960.0,-0.0625,-0.125,0.125,24.375,10.875,-71.5,0.999258301630135,-0.03259247086919693,-0.020507622119944134,0.00012206917928538175,101664.0,131072,0,
1594840090764710840,24.0,-64.0,960.0,-0.25,-0.125,0.0,25.375,10.5625,-71.5,0.999258301630135,-0.03259247086919693,-0.020507622119944134,0.00012206917928538175,101664.0,131072,0,
1594840090798664232,21.0,-65.0,961.0,0.125,-0.0625,0.0625,25.375,10.5625,-71.5,0.999258301630135,-0.03259247086919693,-0.020507622119944134,0.00012206917928538175,101664.0,131072,0,
1594840090831067842,23.0,-62.0,958.0,0.0625,-0.0625,0.0625,25.375,11.25,-72.25,0.999258301630135,-0.03259247086919693,-0.020507622119944134,0.00012206917928538175,101664.0,131072,0,
1594840090864863971,22.0,-64.0,958.0,0.0,0.0,-0.0625,24.75,10.875,-71.875,0.999258301630135,-0.03259247086919693,-0.020507622119944134,0.00012206917928538175,101664.0,131072,0,
1594840090897465860,23.0,-61.0,960.0,-0.125,0.3125,0.0,24.75,10.875,-71.875,0.999258301630135,-0.03259247086919693,-0.020507622119944134,0.00012206917928538175,101664.0,131072,0,
1594840090935195341,22.0,-63.0,966.0,0.1875,-0.0625,-0.0625,24.75,10.875,-72.25,0.999258301630135,-0.03259247086919693,-0.020507622119944134,0.00012206917928538175,101663.5,131072,0,
1594840090971332382,24.0,-63.0,959.0,0.0,0.0625,-0.125,25.75,10.1875,-71.875,0.999258301630135,-0.03259247086919693,-0.020507622119944134,0.00012206917928538175,101663.5,131072,0,
1594840091003868073,22.0,-64.0,960.0,0.0,-0.0625,0.0,25.0625,11.6875,-71.875,0.999258301630135,-0.03259247086919693,-0.020507622119944134,0.00012206917928538175,101663.5,131072,0,
1594840091037322649,25.0,-64.0,962.0,0.0625,-0.25,0.0625,25.0625,11.6875,-71.875,0.999258301630135,-0.03259247086919693,-0.020507622119944134,0.00012206917928538175,101663.5,131072,0,
1594840091070697187,22.0,-66.0,962.0,0.125,0.0625,0.0,25.375,10.875,-72.25,0.999258301630135,-0.03259247086919693,-0.020507622119944134,0.00012206917928538175,101663.5,131072,0,
1594840091105647928,23.0,-63.0,964.0,0.1875,-0.0625,0.0,25.375,10.875,-72.25,0.999258301630135,-0.03259247086919693,-0.020507622119944134,0.00012206917928538175,101663.5,131072,0,
1594840091138873549,22.0,-63.0,959.0,-0.0625,0.0625,0.0,24.75,11.25,-71.875,0.999258301630135,-0.03259247086919693,-0.020507622119944134,0.00012206917928538175,101663.5,131072,0,
1594840091172690973,24.0,-63.0,959.0,-0.125,0.0,0.0,24.75,10.875,-72.6875,0.999258301630135,-0.03259247086919693,-0.020507622119944134,0.00012206917928538175,101663.5,131072,0,
1594840091206091504,22.0,-63.0,960.0,0.1875,0.125,-0.0625,24.75,10.875,-72.6875,0.999258301630135,-0.03259247086919693,-0.020507622119944134,0.00012206917928538175,101663.5,131072,0,
1594840091238677675,24.0,-62.0,958.0,-0.0625,-0.0625,0.0,24.75,10.5625,-71.875,0.999258301630135,-0.03259247086919693,-0.020507622119944134,0.00012206917928538175,101663.5,131072,0,
1594840091268604523,23.0,-62.0,961.0,0.0625,0.0625,0.0,24.375,10.875,-71.5,0.999258301630135,-0.03259247086919693,-0.020507622119944134,0.00012206917928538175,101663.5,131072,0,
1594840091304066758,24.0,-62.0,961.0,-0.125,0.25,-0.0625,24.375,10.875,-71.5,0.999258301630135,-0.03259247086919693,-0.020507622119944134,0.00012206917928538175,101663.5,131072,0,
1594840091335779033,22.0,-63.0,962.0,-0.1875,-0.0625,0.0,24.75,11.6875,-71.5,0.999258301630135,-0.03259247086919693,-0.020507622119944134,0.00012206917928538175,101668.5,131072,0,
1594840091368936737,24.0,-60.0,961.0,-0.25,0.0625,-0.0625,24.75,10.875,-71.875,0.999258301630135,-0.03259247086919693,-0.020507622119944134,0.00012206917928538175,101668.5,131072,0,
1594840091402692024,23.0,-62.0,960.0,0.0625,-0.125,-0.125,24.75,10.875,-71.875,0.999258301630135,-0.03259247086919693,-0.020507622119944134,0.00012206917928538175,101668.5,131072,0,
1594840091434079262,23.0,-61.0,962.0,-0.25,0.0625,0.0,25.0625,10.875,-71.875,0.999258301630135,-0.03259247086919693,-0.020507622119944134,0.00012206917928538175,101668.5,131072,0,
1594840091465834843,22.0,-64.0,961.0,0.0,0.1875,-0.0625,24.75,11.25,-71.5,0.999258301630135,-0.03259247086919693,-0.020507622119944134,0.00012206917928538175,101668.5,131072,0,
1594840091502126124,24.0,-62.0,958.0,0.0,0.0625,0.0625,24.75,11.25,-71.5,0.999258301630135,-0.03259247086919693,-0.020507622119944134,0.00012206917928538175,101668.5, , ,
1594840091536156232,23.0,-65.0,959.0,-0.25,0.125,0.0,25.375,10.5625,-71.875,0.999258301630135,-0.03259247086919693,-0.020507622119944134,0.00012206917928538175,101668.5,131072,0,
1594840091570200138,24.0,-61.0,961.0,-0.125,-0.1875,0.0,25.375,10.5625,-72.5625,0.999258301630135,-0.03259247086919693,-0.020507622119944134,0.00012206917928538175,101668.5,131072,0,
1594840091604162331,22.0,-63.0,957.0,-0.125,-0.1875,-0.0625,25.375,10.5625,-72.5625,0.999258301630135,-0.03259247086919693,-0.020507622119944134,0.00012206917928538175,101668.5,131072,0,
1594840091638043817,22.0,-61.0,960.0,-0.0625,0.125,-0.0625,25.375,11.25,-72.5625,0.999258301630135,-0.03259247086919693,-0.020507622119944134,0.00012206917928538175,101668.5,131072,0,
1594840091671199462,23.0,-64.0,961.0,-0.125,-0.1875,0.0625,24.375,10.1875,-73.0625,0.999258301630135,-0.03259247086919693,-0.020507622119944134,0.00012206917928538175,101668.5,131072,0,
1594840091703464303,24.0,-64.0,959.0,-0.0625,-0.0625,-0.0625,24.375,10.1875,-73.0625,0.999258301630135,-0.03259247086919693,-0.020507622119944134,0.00012206917928538175,101666.25,131072,0,
1594840091735196584,24.0,-60.0,960.0,0.0625,-0.0625,-0.125,24.375,11.25,-72.25,0.999258301630135,-0.03259247086919693,-0.020507622119944134,0.00012206917928538175,101666.25,131072,0,
1594840091768140446,24.0,-63.0,960.0,-0.0625,0.0,0.0,25.0625,11.6875,-72.6875,0.999258301630135,-0.03259247086919693,-0.020507622119944134,0.00012206917928538175,101666.25,131072,0,
1594840091799482668,22.0,-62.0,962.0,0.0,0.0625,0.0,25.0625,11.6875,-72.6875,0.999258301630135,-0.03259247086919693,-0.020507622119944134,0.00012206917928538175,101666.25,131072,0,
1594840091835068653,22.0,-63.0,959.0,-0.0625,0.0,-0.125,25.0625,10.5625,-72.25,0.999258301630135,-0.03259247086919693,-0.020507622119944134,0.00012206917928538175,101666.25,131072,0,
1594840091868269538,24.0,-63.0,961.0,0.0625,0.1875,-0.0625,24.75,10.5625,-71.375,0.999258301630135,-0.03259247086919693,-0.020507622119944134,0.00012206917928538175,101666.25,131072,0,
1594840091901218323,23.0,-62.0,963.0,-0.25,0.25,-0.125,24.75,10.5625,-71.375,0.999258301630135,-0.03259247086919693,-0.020507622119944134,0.00012206917928538175,101666.25,131072,0,
1594840091935023664,23.0,-63.0,957.0,-0.3125,-0.0625,-0.125,25.375,10.875,-71.0625,0.999258301630135,-0.03259247086919693,-0.020507622119944134,0.00012206917928538175,101666.25,131072,0,
1594840091969464738,24.0,-62.0,960.0,0.125,0.0625,-0.0625,24.375,10.875,-73.0625,0.999258301630135,-0.03259247086919693,-0.020507622119944134,0.00012206917928538175,101666.25,131072,0,
1594840092003082210,24.0,-63.0,961.0,0.0625,0.0625,0.0625,24.375,10.875,-73.0625,0.999258301630135,-0.03259247086919693,-0.020507622119944134,0.00012206917928538175,101666.25,131072,0,
1594840092034780842,22.0,-65.0,958.0,0.0,-0.1875,0.0,25.0625,11.6875,-72.25,0.999258301630135,-0.03259247086919693,-0.020507622119944134,0.00012206917928538175,101666.25,131072,0,
1594840092067945895,23.0,-66.0,961.0,-0.0625,-0.25,0.0,25.375,11.25,-71.375,0.999258301630135,-0.03259247086919693,-0.020507622119944134,0.00012206917928538175,101666.25,131072,0,
1594840092100525927,22.0,-63.0,958.0,-0.1875,0.0625,-0.0625,25.375,11.25,-71.375,0.999258301630135,-0.03259247086919693,-0.020507622119944134,0.00012206917928538175,101666.75,131072,0,
1594840092134337534,24.0,-62.0,960.0,0.1875,0.125,-0.125,25.375,11.25,-73.0625,0.999258301630135,-0.03259247086919693,-0.020507622119944134,0.00012206917928538175,101666.75,131072,0,
1594840092170123886,25.0,-63.0,959.0,0.0,0.0,-0.0625,24.75,10.875,-73.0625,0.999258301630135,-0.03259247086919693,-0.020507622119944134,0.00012206917928538175,101666.75,131072,0,
1594840092204791123,22.0,-60.0,961.0,0.125,0.1875,0.0625,24.75,10.875,-73.0625,0.999258301630135,-0.03259247086919693,-0.020507622119944134,0.00012206917928538175,101666.75,131072,0,
1594840092239808510,22.0,-63.0,958.0,-0.0625,-0.125,-0.0625,24.75,10.5625,-72.25,0.999258301630135,-0.03259247086919693,-0.020507622119944134,0.00012206917928538175,101666.75,131072,0,
1594840092272607968,24.0,-63.0,964.0,-0.0625,-0.125,-0.0625,25.0625,11.6875,-72.25,0.999258301630135,-0.03259247086919693,-0.020507622119944134,0.00012206917928538175,101666.75,131072,0,
1594840092305470155,22.0,-64.0,960.0,0.0625,0.0625,0.0,25.0625,11.6875,-72.25,0.999258301630135,-0.03259247086919693,-0.020507622119944134,0.00012206917928538175,101666.75,131072,0,
1594840092339606936,22.0,-66.0,961.0,0.0625,0.125,0.0625,25.0625,11.25,-72.6875,0.999258301630135,-0.03259247086919693,-0.020507622119944134,0.00012206917928538175,101666.75,131072,0,
1594840092373620210,23.0,-64.0,960.0,0.125,0.0,0.0625,25.0625,10.875,-72.25,0.999258301630135,-0.03259247086919693,-0.020507622119944134,0.00012206917928538175,101666.75,131072,0,
1594840092406642448,24.0,-62.0,958.0,-0.0625,0.0,0.0,25.0625,10.875,-72.25,0.999258301630135,-0.03259247086919693,-0.020507622119944134,0.00012206917928538175,101666.75,131072,0,
1594840092440459271,22.0,-62.0,959.0,-0.125,0.125,0.0625,25.375,10.875,-71.0625,0.999258301630135,-0.03259247086919693,-0.020507622119944134,0.00012206917928538175,101666.75,131072,0,
1594840092473931970,24.0,-63.0,963.0,-0.0625,-0.125,0.0625,24.375,10.5625,-71.875,0.999258301630135,-0.03259247086919693,-0.020507622119944134,0.00012206917928538175,101667.25,131072,0,
1594840092513203264,24.0,-62.0,960.0,-0.1875,0.1875,0.0,24.375,10.5625,-71.875,0.999258301630135,-0.03259247086919693,-0.020507622119944134,0.00012206917928538175,101667.25,131072,0,
1594840092547200179,23.0,-62.0,962.0,-0.0625,-0.0625,0.0,25.375,11.25,-72.6875,0.999258301630135,-0.03259247086919693,-0.020507622119944134,0.00012206917928538175,101667.25,131072,0,
1594840092580003165,23.0,-63.0,962.0,-0.125,-0.0625,0.0625,24.75,10.1875,-72.25,0.999258301630135,-0.03259247086919693,-0.020507622119944134,0.00012206917928538175,101667.25,131072,0,
1594840092615233747,20.0,-62.0,962.0,0.0,-0.1875,0.0,24.75,10.1875,-72.25,0.999258301630135,-0.03259247086919693,-0.020507622119944134,0.00012206917928538175,101667.25,131072,0,
1594840092649222102,24.0,-63.0,961.0,-0.0625,-0.0625,0.125,25.0625,10.875,-72.25,0.999258301630135,-0.03259247086919693,-0.020507622119944134,0.00012206917928538175,101667.25,131072,0,
1594840092690101390,22.0,-63.0,959.0,0.0,-0.1875,-0.0625,25.375,9.75,-71.5,0.999258301630135,-0.03259247086919693,-0.020507622119944134,0.00012206917928538175,101667.25,131072,0,
1594840092724316165,23.0,-62.0,963.0,0.0,-0.375,0.125,24.75,11.25,-71.5,0.999258301630135,-0.03259247086919693,-0.020507622119944134,0.00012206917928538175,101667.25,131072,0,
1594840092756989419,24.0,-63.0,958.0,0.125,-0.25,0.0,24.75,11.25,-71.5,0.999258301630135,-0.03259247086919693,-0.020507622119944134,0.00012206917928538175,101667.25,131072,0,
1594840092789922185,24.0,-61.0,960.0,0.1875,0.1875,0.125,25.0625,10.875,-71.5,0.999258301630135,-0.03259247086919693,-0.020507622119944134,0.00012206917928538175,101667.25,131072,0,
1594840092821490095,24.0,-66.0,960.0,-0.125,0.0,0.0,24.375,10.875,-70.6875,0.999258301630135,-0.03259247086919693,-0.020507622119944134,0.00012206917928538175,101667.25,131072,0,
1594840092855808372,22.0,-64.0,958.0,0.125,-0.125,0.0,24.375,10.875,-70.6875,0.999258301630135,-0.03259247086919693,-0.020507622119944134,0.00012206917928538175,101664.75,131072,0,
1594840092889149110,23.0,-64.0,961.0,0.0625,-0.0625,0.0,24.75,11.25,-72.6875,0.999258301630135,-0.03259247086919693,-0.020507622119944134,0.00012206917928538175,101664.75,131072,0,
1594840092929044166,25.0,-63.0,963.0,0.3125,-0.0625,0.0625,24.75,11.25,-71.875,0.999258301630135,-0.03259247086919693,-0.020507622119944134,0.00012206917928538175,101664.75,131072,0,
1594840092963049854,22.0,-63.0,961.0,0.0625,0.125,-0.125,24.75,11.25,-71.875,0.999258301630135,-0.03259247086919693,-0.020507622119944134,0.00012206917928538175,101664.75,131072,0,
1594840092995511022,24.0,-63.0,961.0,0.125,0.0,0.0,25.0625,11.25,-71.5,0.999258301630135,-0.03259247086919693,-0.020507622119944134,0.00012206917928538175,101664.75,131072,0,
1594840093030222880,22.0,-64.0,961.0,0.1875,0.0625,-0.0625,24.375,11.6875,-72.6875,0.999258301630135,-0.03259247086919693,-0.020507622119944134,0.00012206917928538175,101664.75,131072,0,
1594840093067771746,22.0,-63.0,960.0,-0.1875,0.25,0.0,24.375,11.6875,-72.6875,0.999258301630135,-0.03259247086919693,-0.020507622119944134,0.00012206917928538175,101664.75, , ,
1594840093101667581,23.0,-65.0,958.0,-0.375,-0.0625,-0.0625,24.75,12.0,-72.25,0.999258301630135,-0.03259247086919693,-0.020507622119944134,0.00012206917928538175,101664.75,131072,0,
1594840093134222781,23.0,-62.0,961.0,0.0625,0.0,-0.125,25.0625,11.25,-72.6875,0.999258301630135,-0.03259247086919693,-0.020507622119944134,0.00012206917928538175,101664.75,131072,0,
1594840093167734176,23.0,-66.0,960.0,-0.125,0.1875,0.0,25.0625,11.25,-72.6875,0.999258301630135,-0.03259247086919693,-0.020507622119944134,0.00012206917928538175,101664.75,131072,0,
1594840093198972019,25.0,-62.0,958.0,0.0625,-0.1875,-0.0625,24.75,11.25,-72.25,0.999258301630135,-0.03259247086919693,-0.020507622119944134,0.00012206917928538175,101664.75,131072,0,
1594840093231222065,25.0,-64.0,959.0,0.125,-0.125,0.0625,25.0625,11.6875,-71.875,0.999258301630135,-0.03259247086919693,-0.020507622119944134,0.00012206917928538175,101667.25,131072,0,
1594840093264171915,23.0,-62.0,961.0,0.125,0.125,0.0,25.0625,11.6875,-71.875,0.999258301630135,-0.03259247086919693,-0.020507622119944134,0.00012206917928538175,101667.25,131072,0,
1594840093296398337,23.0,-62.0,959.0,0.0625,0.0625,0.0625,24.0,11.6875,-72.25,0.999258301630135,-0.03259247086919693,-0.020507622119944134,0.00012206917928538175,101667.25,131072,0,
1594840093329540733,24.0,-63.0,961.0,-0.25,0.0,-0.1875,24.0,11.25,-71.5,0.999258301630135,-0.03259247086919693,-0.020507622119944134,0.00012206917928538175,101667.25,131072,0,
1594840093362166014,21.0,-65.0,959.0,-0.125,-0.0625,0.0,24.0,11.25,-71.5,0.999258301630135,-0.03259247086919693,-0.020507622119944134,0.00012206917928538175,101667.25,131072,0,
1594840093395722249,23.0,-65.0,960.0,-0.125,0.0625,-0.0625,24.75,11.6875,-71.875,0.999258301630135,-0.03259247086919693,-0.020507622119944134,0.00012206917928538175,101667.25,131072,0,
1594840093428881641,22.0,-63.0,960.0,0.0,-0.125,0.0,24.75,10.875,-72.6875,0.999258301630135,-0.03259247086919693,-0.020507622119944134,0.00012206917928538175,101667.25,131072,0,
1594840093461599950,24.0,-63.0,959.0,0.0625,-0.0625,-0.0625,24.75,10.875,-72.6875,0.999258301630135,-0.03259247086919693,-0.020507622119944134,0.00012206917928538175,101667.25,131072,0,
1594840093493774801,21.0,-62.0,959.0,-0.0625,0.0625,-0.125,24.375,10.875,-71.5,0.999258301630135,-0.03259247086919693,-0.020507622119944134,0.00012206917928538175,101667.25,131072,0,
1594840093526472120,24.0,-65.0,961.0,-0.0625,0.0,-0.125,25.0625,11.6875,-73.375,0.999258301630135,-0.03259247086919693,-0.020507622119944134,0.00012206917928538175,101667.25,131072,0,
1594840093558357325,23.0,-63.0,960.0,0.0625,0.3125,-0.0625,25.0625,11.6875,-73.375,0.999258301630135,-0.03259247086919693,-0.020507622119944134,0.00012206917928538175,101667.25,131072,0,
1594840093591898311,25.0,-63.0,961.0,0.0625,-0.125,0.0,24.75,11.25,-72.25,0.999258301630135,-0.03259247086919693,-0.020507622119944134,0.00012206917928538175,101666.25,131072,0,
1594840093625022086,23.0,-63.0,961.0,0.0625,0.1875,0.0,25.375,11.25,-71.875,0.999258301630135,-0.03259247086919693,-0.020507622119944134,0.00012206917928538175,101666.25,131072,0,
1594840093657906705,21.0,-62.0,961.0,0.25,0.0625,-0.0625,25.375,11.25,-71.875,0.999258301630135,-0.03259247086919693,-0.020507622119944134,0.00012206917928538175,101666.25,131072,0,
1594840093691100820,24.0,-66.0,962.0,0.0,-0.0625,-0.1875,25.0625,10.875,-73.0625,0.999258301630135,-0.03259247086919693,-0.020507622119944134,0.00012206917928538175,101666.25,131072,0,
1594840093723705316,24.0,-62.0,960.0,-0.0625,0.0625,-0.0625,25.0625,11.25,-71.5,0.999258301630135,-0.03259247086919693,-0.020507622119944134,0.00012206917928538175,101666.25,131072,0,
1594840093755158457,23.0,-62.0,963.0,0.0,0.0,-0.125,25.0625,11.25,-71.5,0.999258301630135,-0.03259247086919693,-0.020507622119944134,0.00012206917928538175,101666.25,131072,0,
1594840093781520725,23.0,-62.0,965.0,0.0625,0.1875,-0.0625,25.0625,10.5625,-73.0625,0.999258301630135,-0.03259247086919693,-0.020507622119944134,0.00012206917928538175,101666.25,131072,0,
1594840093807344121,22.0,-64.0,962.0,-0.0625,0.125,-0.0625,25.0625,10.5625,-73.0625,0.999258301630135,-0.03259247086919693,-0.020507622119944134,0.00012206917928538175,101666.25,131072,0,
1594840093832109814,23.0,-63.0,958.0,0.1875,-0.125,-0.0625,25.0625,10.5625,-73.0625,0.999258301630135,-0.03259247086919693,-0.020507622119944134,0.00012206917928538175,101666.25,131072,0,
1594840093857242465,23.0,-62.0,961.0,-0.3125,-0.25,0.125,24.75,10.875,-71.5,0.999258301630135,-0.03259247086919693,-0.020507622119944134,0.00012206917928538175,101666.25,131072,0,
1594840093881749122,24.0,-65.0,961.0,-0.0625,0.0625,0.0625,25.0625,10.875,-71.5,0.999258301630135,-0.03259247086919693,-0.020507622119944134,0.00012206917928538175,101666.25,131072,0,
1594840093907094954,22.0,-62.0,960.0,-0.1875,0.0,-0.0625,25.0625,10.5625,-71.0625,0.999258301630135,-0.03259247086919693,-0.020507622119944134,0.00012206917928538175,101666.25,131072,0,
1594840093932813817,22.0,-59.0,964.0,-0.125,0.0625,-0.0625,25.0625,10.5625,-71.0625,0.999258301630135,-0.03259247086919693,-0.020507622119944134,0.00012206917928538175,101666.25,131072,0,
1594840093957574573,22.0,-64.0,960.0,0.0625,0.0,-0.0625,25.0625,11.25,-71.875,0.999258301630135,-0.03259247086919693,-0.020507622119944134,0.00012206917928538175,101666.25,131072,0,
1594840093982821848,23.0,-62.0,962.0,-0.0625,0.0625,0.0,25.375,11.6875,-71.875,0.999258301630135,-0.03259247086919693,-0.020507622119944134,0.00012206917928538175,101668.0,131072,0,
1594840094009029411,23.0,-62.0,959.0,0.125,0.0,0.0,25.375,11.6875,-71.875,0.999258301630135,-0.03259247086919693,-0.020507622119944134,0.00012206917928538175,101668.0,131072,0,
1594840094034990335,24.0,-65.0,960.0,0.25,0.0,0.0,24.75,10.875,-71.875,0.999258301630135,-0.03259247086919693,-0.020507622119944134,0.00012206917928538175,101668.0,131072,0,
1594840094060501882,22.0,-62.0,959.0,-0.0625,-0.125,0.125,24.75,10.875,-71.875,0.999258301630135,-0.03259247086919693,-0.020507622119944134,0.00012206917928538175,101668.0,131072,0,
1594840094086935571,22.0,-63.0,961.0,-0.1875,-0.0625,0.0,25.375,10.875,-71.875,0.999258301630135,-0.03259247086919693,-0.020507622119944134,0.00012206917928538175,101668.0,131072,0,
1594840094112703150,22.0,-64.0,961.0,-0.0625,-0.0625,-0.0625,25.375,10.875,-71.875,0.999258301630135,-0.03259247086919693,-0.020507622119944134,0.00012206917928538175,101668.0,131072,0,
1594840094136395828,23.0,-62.0,961.0,-0.125,0.1875,0.0,25.0625,10.875,-72.25,0.999258301630135,-0.03259247086919693,-0.020507622119944134,0.00012206917928538175,101668.0,131072,0,
1594840094161219247,22.0,-66.0,961.0,0.0,0.0625,0.0,25.0625,10.875,-72.25,0.999258301630135,-0.03259247086919693,-0.020507622119944134,0.00012206917928538175,101668.0,131072,0,
1594840094186399551,23.0,-64.0,962.0,0.0,0.125,0.0625,25.0625,10.5625,-71.875,0.999258301630135,-0.03259247086919693,-0.020507622119944134,0.00012206917928538175,101668.0,131072,0,
1594840094211950560,23.0,-63.0,961.0,0.0,-0.0625,0.0,25.0625,10.5625,-71.875,0.999258301630135,-0.03259247086919693,-0.020507622119944134,0.00012206917928538175,101668.0,131072,0,
1594840094238108653,23.0,-64.0,961.0,0.0,-0.125,-0.125,24.375,10.875,-72.25,0.999258301630135,-0.03259247086919693,-0.020507622119944134,0.00012206917928538175,101668.0,131072,0,
1594840094266509448,23.0,-65.0,961.0,0.0,0.0625,-0.0625,24.375,10.875,-72.25,0.999258301630135,-0.03259247086919693,-0.020507622119944134,0.00012206917928538175,101668.0,131072,0,
1594840094295264563,21.0,-63.0,962.0,0.0,0.0,-0.0625,24.75,12.0,-72.25,0.999258301630135,-0.03259247086919693,-0.020507622119944134,0.00012206917928538175,101668.0,131072,0,
1594840094320639578,23.0,-64.0,961.0,0.0625,-0.0625,-0.0625,24.75,12.0,-72.25,0.999258301630135,-0.03259247086919693,-0.020507622119944134,0.00012206917928538175,101668.0,131072,0,
1594840094344639487,23.0,-64.0,961.0,-0.125,-0.125,0.0,25.75,12.0,-71.875,0.999258301630135,-0.03259247086919693,-0.020507622119944134,0.00012206917928538175,101668.0,131072,0,
1594840094368592017,23.0,-62.0,961.0,0.125,-0.125,0.0625,25.75,12.0,-71.875,0.999258301630135,-0.03259247086919693,-0.020507622119944134,0.00012206917928538175,101665.0,131072,0,
1594840094391820541,23.0,-63.0,962.0,0.0,-0.25,0.0,24.75,11.25,-71.5,0.999258301630135,-0.03259247086919693,-0.020507622119944134,0.00012206917928538175,101665.0,131072,0,
1594840094414281557,23.0,-64.0,957.0,0.0,-0.0625,0.0,24.75,11.25,-71.5,0.999258301630135,-0.03259247086919693,-0.020507622119944134,0.00012206917928538175,101665.0,131072,0,
1594840094438777767,23.0,-63.0,960.0,0.125,-0.0625,-0.0625,25.375,10.875,-72.6875,0.999258301630135,-0.03259247086919693,-0.020507622119944134,0.00012206917928538175,101665.0,131072,0,
1594840094462663615,24.0,-64.0,958.0,-0.125,-0.1875,0.0625,25.375,10.875,-72.6875,0.999258301630135,-0.03259247086919693,-0.020507622119944134,0.00012206917928538175,101665.0,131072,0,
1594840094486483312,23.0,-65.0,961.0,-0.0625,0.0625,0.0,24.375,10.5625,-72.25,0.999258301630135,-0.03259247086919693,-0.020507622119944134,0.00012206917928538175,101665.0,131072,0,
1594840094509992772,22.0,-62.0,960.0,0.0,-0.0625,-0.0625,24.375,10.5625,-72.25,0.999258301630135,-0.03259247086919693,-0.020507622119944134,0.00012206917928538175,101665.0,131072,0,
1594840094534274796,23.0,-63.0,959.0,-0.125,0.0625,0.125,24.375,10.5625,-71.875,0.999258301630135,-0.03259247086919693,-0.020507622119944134,0.00012206917928538175,101665.0,131072,0,
1594840094557874749,24.0,-62.0,959.0,-0.125,0.125,0.0,24.375,10.5625,-71.875,0.999258301630135,-0.03259247086919693,-0.020507622119944134,0.00012206917928538175,101665.0,131072,0,
1594840094583413005,24.0,-63.0,961.0,-0.0625,-0.1875,0.125,25.0625,10.5625,-73.0625,0.999258301630135,-0.03259247086919693,-0.020507622119944134,0.00012206917928538175,101665.0,131072,0,
1594840094608701519,22.0,-62.0,961.0,0.0,-0.0625,0.0,25.0625,10.5625,-73.0625,0.999258301630135,-0.03259247086919693,-0.020507622119944134,0.00012206917928538175,101665.0,131072,0,
1594840094634462327,23.0,-62.0,961.0,-0.1875,0.25,0.0,24.75,10.5625,-71.5,0.999258301630135,-0.03259247086919693,-0.020507622119944134,0.00012206917928538175,101665.0,131072,0,
1594840094660749706,24.0,-62.0,964.0,0.125,0.0625,0.1875,24.75,10.5625,-71.5,0.999258301630135,-0.03259247086919693,-0.020507622119944134,0.00012206917928538175,101665.0,131072,0,
1594840094686080685,21.0,-64.0,963.0,-0.125,-0.1875,0.125,25.375,9.75,-71.5,0.999258301630135,-0.03259247086919693,-0.020507622119944134,0.00012206917928538175,101665.0,131072,0,
1594840094710874663,24.0,-63.0,959.0,0.0625,0.0625,0.0625,25.375,9.75,-71.5,0.999258301630135,-0.03259247086919693,-0.020507622119944134,0.00012206917928538175,101665.0,131072,0,
1594840094735137844,22.0,-63.0,962.0,-0.125,-0.0625,0.0,25.375,10.875,-71.875,0.999258301630135,-0.03259247086919693,-0.020507622119944134,0.00012206917928538175,101669.75,131072,0,
1594840094758692810,22.0,-65.0,959.0,-0.125,0.125,-0.0625,25.375,10.875,-71.875,0.999258301630135,-0.03259247086919693,-0.020507622119944134,0.00012206917928538175,101669.75,131072,0,
1594840094783395042,24.0,-61.0,964.0,-0.1875,-0.125,0.125,25.0625,10.5625,-73.5,0.999258301630135,-0.03259247086919693,-0.020507622119944134,0.00012206917928538175,101669.75,131072,0,
1594840094807289858,21.0,-63.0,961.0,0.25,-0.0625,0.0625,25.0625,10.5625,-73.5,0.999258301630135,-0.03259247086919693,-0.020507622119944134,0.00012206917928538175,101669.75,131072,0,
1594840094830888298,23.0,-62.0,960.0,0.0,-0.0625,0.125,25.0625,10.5625,-71.0625,0.999258301630135,-0.03259247086919693,-0.020507622119944134,0.00012206917928538175,101669.75,131072,0,
1594840094855022363,24.0,-65.0,958.0,0.0,0.1875,-0.125,25.0625,10.5625,-71.0625,0.999258301630135,-0.03259247086919693,-0.020507622119944134,0.00012206917928538175,101669.75,131072,0,
1594840094878285456,25.0,-64.0,963.0,0.0,0.0,0.0,25.0625,10.5625,-71.0625,0.999258301630135,-0.03259247086919693,-0.020507622119944134,0.00012206917928538175,101669.75,131072,0,
1594840094901081166,23.0,-63.0,961.0,-0.0625,-0.0625,0.0,24.75,10.875,-72.6875,0.999258301630135,-0.03259247086919693,-0.020507622119944134,0.00012206917928538175,101669.75,131072,0,
1594840094924625511,24.0,-60.0,960.0,-0.375,-0.125,0.0,24.75,10.875,-72.6875,0.999258301630135,-0.03259247086919693,-0.020507622119944134,0.00012206917928538175,101669.75,131072,0,
1594840094947840300,21.0,-62.0,961.0,0.0,0.0,-0.0625,24.75,10.875,-71.5,0.999258301630135,-0.03259247086919693,-0.020507622119944134,0.00012206917928538175,101669.75,131072,0,
1594840094973246578,23.0,-65.0,960.0,-0.25,-0.1875,-0.0625,24.75,10.875,-71.5,0.999258301630135,-0.03259247086919693,-0.020507622119944134,0.00012206917928538175,101669.75,131072,0,
1594840094998198189,23.0,-63.0,958.0,0.0625,-0.1875,-0.0625,25.0625,12.0,-71.875,0.999258301630135,-0.03259247086919693,-0.020507622119944134,0.00012206917928538175,101669.75,131072,0,
1594840095023058895,23.0,-61.0,960.0,0.1875,0.0625,0.0,25.0625,12.0,-71.875,0.999258301630135,-0.03259247086919693,-0.020507622119944134,0.00012206917928538175,101669.75,131072,0,
1594840095049144986,22.0,-64.0,960.0,0.0,-0.1875,0.0625,25.0625,10.875,-71.875,0.999258301630135,-0.03259247086919693,-0.020507622119944134,0.00012206917928538175,101669.75,131072,0,
1594840095075274124,22.0,-62.0,961.0,-0.1875,-0.1875,0.0,25.0625,10.875,-71.875,0.999258301630135,-0.03259247086919693,-0.020507622119944134,0.00012206917928538175,101669.75,131072,0,
1594840095101811103,22.0,-62.0,960.0,0.0,-0.125,-0.0625,25.75,10.1875,-72.75,0.999258301630135,-0.03259247086919693,-0.020507622119944134,0.00012206917928538175,101669.75,131072,0,
1594840095127152844,23.0,-64.0,964.0,0.125,0.0625,0.0625,25.75,10.1875,-72.75,0.999258301630135,-0.03259247086919693,-0.020507622119944134,0.00012206917928538175,101673.0,131072,0,
1594840095151214731,23.0,-62.0,960.0,0.0625,-0.1875,0.0625,25.75,10.875,-71.875,0.999258301630135,-0.03259247086919693,-0.020507622119944134,0.00012206917928538175,101673.0,131072,0,
1594840095176811157,25.0,-62.0,961.0,0.0625,-0.125,0.0625,25.75,10.875,-71.875,0.999258301630135,-0.03259247086919693,-0.020507622119944134,0.00012206917928538175,101673.0,131072,0,
1594840095202509563,25.0,-63.0,957.0,0.0625,-0.0625,-0.0625,25.375,10.5625,-72.25,0.999258301630135,-0.03259247086919693,-0.020507622119944134,0.00012206917928538175,101673.0,131072,0,
1594840095228730999,22.0,-61.0,960.0,-0.1875,0.0,0.0,25.375,10.5625,-72.25,0.999258301630135,-0.03259247086919693,-0.020507622119944134,0.00012206917928538175,101673.0,131072,0,
1594840095254980658,24.0,-60.0,963.0,-0.0625,-0.125,-0.125,24.75,11.25,-71.875,0.999258301630135,-0.03259247086919693,-0.020507622119944134,0.00012206917928538175,101673.0,131072,0,
1594840095280636289,24.0,-63.0,959.0,-0.1875,-0.25,0.0,24.75,11.25,-71.875,0.999258301630135,-0.03259247086919693,-0.020507622119944134,0.00012206917928538175,101673.0,131072,0,
1594840095305656334,24.0,-62.0,962.0,0.0625,-0.0625,0.0625,25.375,10.875,-72.25,0.999258301630135,-0.03259247086919693,-0.020507622119944134,0.00012206917928538175,101673.0,131072,0,
1594840095330907330,25.0,-63.0,962.0,-0.125,0.0,-0.0625,25.375,10.875,-72.25,0.999258301630135,-0.03259247086919693,-0.020507622119944134,0.00012206917928538175,101673.0,131072,0,
1594840095356922276,23.0,-63.0,959.0,0.0,0.25,-0.0625,24.375,10.875,-71.875,0.999258301630135,-0.03259247086919693,-0.020507622119944134,0.00012206917928538175,101673.0,131072,0,
1594840095382594154,22.0,-64.0,958.0,-0.1875,-0.0625,-0.125,24.375,10.875,-71.875,0.999258301630135,-0.03259247086919693,-0.020507622119944134,0.00012206917928538175,101673.0,131072,0,
1594840095407971434,25.0,-65.0,961.0,-0.0625,0.0,0.0,24.375,10.5625,-71.5625,0.999258301630135,-0.03259247086919693,-0.020507622119944134,0.00012206917928538175,101673.0,131072,0,
1594840095432971004,22.0,-64.0,960.0,0.0,0.0,0.0,24.375,10.5625,-71.5625,0.999258301630135,-0.03259247086919693,-0.020507622119944134,0.00012206917928538175,101673.0,131072,0,
1594840095458493440,22.0,-64.0,961.0,-0.3125,-0.125,-0.0625,24.375,11.25,-71.875,0.999258301630135,-0.03259247086919693,-0.020507622119944134,0.00012206917928538175,101673.0,131072,0,
1594840095484462615,23.0,-63.0,958.0,-0.25,0.0625,-0.0625,24.375,11.25,-71.875,0.999258301630135,-0.03259247086919693,-0.020507622119944134,0.00012206917928538175,101673.0,131072,0,
1594840095510244210,24.0,-62.0,962.0,0.0625,-0.125,-0.1875,25.0625,11.6875,-72.25,0.999258301630135,-0.03259247086919693,-0.020507622119944134,0.00012206917928538175,101671.0,131072,0,
1594840095535822993,22.0,-65.0,961.0,0.1875,-0.125,0.0,25.0625,11.6875,-72.25,0.999258301630135,-0.03259247086919693,-0.020507622119944134,0.00012206917928538175,101671.0,131072,0,
1594840095561226852,22.0,-62.0,960.0,-0.125,-0.1875,-0.125,24.75,11.25,-72.375,0.999258301630135,-0.03259247086919693,-0.020507622119944134,0.00012206917928538175,101671.0,131072,0,
1594840095585869008,24.0,-60.0,958.0,-0.1875,0.1875,-0.0625,24.75,11.25,-72.375,0.999258301630135,-0.03259247086919693,-0.020507622119944134,0.00012206917928538175,101671.0,131072,0,
1594840095611013731,22.0,-66.0,959.0,-0.1875,0.0,-0.125,24.75,10.875,-71.5,0.999258301630135,-0.03259247086919693,-0.020507622119944134,0.00012206917928538175,101671.0,131072,0,
1594840095635601930,24.0,-64.0,959.0,-0.0625,0.25,-0.0625,24.75,10.875,-71.5,0.999258301630135,-0.03259247086919693,-0.020507622119944134,0.00012206917928538175,101671.0,131072,0,
1594840095661123202,24.0,-63.0,962.0,-0.0625,0.0,-0.0625,24.375,10.5625,-71.5625,0.999258301630135,-0.03259247086919693,-0.020507622119944134,0.00012206917928538175,101671.0,131072,0,
1594840095686506564,22.0,-63.0,961.0,0.0,-0.0625,-0.0625,24.375,10.5625,-71.5625,0.999258301630135,-0.03259247086919693,-0.020507622119944134,0.00012206917928538175,101671.0,131072,0,
1594840095712912872,21.0,-63.0,961.0,0.0,0.125,0.0,25.0625,10.5625,-72.6875,0.999258301630135,-0.03259247086919693,-0.020507622119944134,0.00012206917928538175,101671.0,131072,0,
1594840095739497179,23.0,-64.0,958.0,0.0625,-0.0625,-0.0625,25.0625,10.5625,-72.6875,0.999258301630135,-0.03259247086919693,-0.020507622119944134,0.00012206917928538175,101671.0,131072,0,
1594840095762654455,24.0,-63.0,961.0,-0.125,0.0625,0.0,24.75,11.25,-71.5625,0.999258301630135,-0.03259247086919693,-0.020507622119944134,0.00012206917928538175,101671.0,131072,0,
1594840095785846810,21.0,-63.0,960.0,0.125,-0.0625,-0.0625,24.75,11.25,-71.5625,0.999258301630135,-0.03259247086919693,-0.020507622119944134,0.00012206917928538175,101671.0,131072,0,
1594840095810043959,23.0,-58.0,961.0,0.125,0.125,-0.0625,24.75,10.875,-71.5625,0.999258301630135,-0.03259247086919693,-0.020507622119944134,0.00012206917928538175,101671.0,131072,0,
1594840095833769123,24.0,-62.0,961.0,0.0625,0.0,0.125,24.75,10.875,-71.5625,0.999258301630135,-0.03259247086919693,-0.020507622119944134,0.00012206917928538175,101671.0,131072,0,
1594840095857909975,22.0,-64.0,959.0,0.4375,-0.125,0.0625,24.75,11.25,-72.375,0.999258301630135,-0.03259247086919693,-0.020507622119944134,0.00012206917928538175,101671.0,131072,0,
1594840095886308054,22.0,-62.0,959.0,0.0625,0.0,-0.0625,24.75,11.25,-72.375,0.999258301630135,-0.03259247086919693,-0.020507622119944134,0.00012206917928538175,101671.75,131072,0,
1594840095918563880,22.0,-61.0,960.0,-0.125,-0.0625,0.125,25.0625,11.6875,-72.25,0.999258301630135,-0.03259247086919693,-0.020507622119944134,0.00012206917928538175,101671.75,131072,0,
1594840095952841581,26.0,-63.0,963.0,-0.1875,0.125,0.0,25.0625,10.875,-72.75,0.999258301630135,-0.03259247086919693,-0.020507622119944134,0.00012206917928538175,101671.75,131072,0,
1594840095987478077,22.0,-63.0,965.0,0.125,-0.25,0.125,25.375,10.875,-71.875,0.999258301630135,-0.03259247086919693,-0.020507622119944134,0.00012206917928538175,101671.75,131072,0,
1594840096020880757,23.0,-63.0,958.0,0.1875,-0.1875,0.0,25.375,10.875,-71.875,0.999258301630135,-0.03259247086919693,-0.020507622119944134,0.00012206917928538175,101671.75,131072,0,
1594840096059283526,23.0,-61.0,962.0,0.1875,-0.125,0.0,25.375,10.5625,-71.5625,0.999258301630135,-0.03259247086919693,-0.020507622119944134,0.00012206917928538175,101671.75,131072,0,
1594840096092266946,22.0,-64.0,957.0,0.1875,0.0,0.0625,25.0625,10.5625,-72.375,0.999258301630135,-0.03259247086919693,-0.020507622119944134,0.00012206917928538175,101671.75,131072,0,
1594840096127241720,24.0,-65.0,962.0,0.0,-0.1875,-0.0625,25.0625,10.5625,-72.375,0.999258301630135,-0.03259247086919693,-0.020507622119944134,0.00012206917928538175,101671.75,131072,0,
1594840096151404395,24.0,-63.0,962.0,-0.125,0.125,0.0625,24.75,11.25,-72.25,0.999258301630135,-0.03259247086919693,-0.020507622119944134,0.00012206917928538175,101671.75,131072,0,
1594840096178379902,23.0,-61.0,959.0,0.0,-0.125,0.0625,24.75,11.25,-72.25,0.999258301630135,-0.03259247086919693,-0.020507622119944134,0.00012206917928538175,101671.75,131072,0,
1594840096203201337,24.0,-63.0,962.0,0.0625,-0.0625,0.0625,25.375,10.875,-71.5625,0.999258301630135,-0.03259247086919693,-0.020507622119944134,0.00012206917928538175,101671.75,131072,0,
1594840096230902464,25.0,-64.0,960.0,0.125,-0.0625,0.0,25.375,10.875,-71.5625,0.999258301630135,-0.03259247086919693,-0.020507622119944134,0.00012206917928538175,101671.75,131072,0,
1594840096264230891,23.0,-64.0,957.0,0.125,0.0625,0.0625,24.75,10.1875,-71.5625,0.999258301630135,-0.03259247086919693,-0.020507622119944134,0.00012206917928538175,101669.5,131072,0,
1594840096298613413,22.0,-64.0,961.0,-0.1875,0.0,0.0625,24.75,10.5625,-72.375,0.999258301630135,-0.03259247086919693,-0.020507622119944134,0.00012206917928538175,101669.5,131072,0,
1594840096332264268,23.0,-62.0,961.0,-0.125,0.0,0.0,24.75,10.5625,-72.375,0.999258301630135,-0.03259247086919693,-0.020507622119944134,0.00012206917928538175,101669.5,131072,0,
1594840096366024484,22.0,-62.0,959.0,-0.1875,0.0,0.0,24.375,12.0,-73.0625,0.999258301630135,-0.03259247086919693,-0.020507622119944134,0.00012206917928538175,101669.5,131072,0,
1594840096391066065,24.0,-63.0,961.0,0.0625,0.125,0.0,25.75,10.875,-72.6875,0.999258301630135,-0.03259247086919693,-0.020507622119944134,0.00012206917928538175,101669.5,131072,0,
1594840096420626054,22.0,-65.0,959.0,0.125,0.0,0.0,25.75,10.875,-72.6875,0.999258301630135,-0.03259247086919693,-0.020507622119944134,0.00012206917928538175,101669.5,131072,0,
1594840096447741051,23.0,-64.0,963.0,-0.0625,0.0,-0.0625,25.375,10.875,-71.0625,0.999258301630135,-0.03259247086919693,-0.020507622119944134,0.00012206917928538175,101669.5,131072,0,
1594840096474227103,23.0,-64.0,957.0,0.1875,0.125,0.0625,25.375,10.875,-71.0625,0.999258301630135,-0.03259247086919693,-0.020507622119944134,0.00012206917928538175,101669.5,131072,0,
1594840096499231118,21.0,-64.0,961.0,0.1875,-0.125,0.0625,25.0625,10.875,-71.875,0.999258301630135,-0.03259247086919693,-0.020507622119944134,0.00012206917928538175,101669.5,131072,0,
1594840096523815738,24.0,-61.0,960.0,0.0,0.0,-0.125,25.0625,10.875,-71.875,0.999258301630135,-0.03259247086919693,-0.020507622119944134,0.00012206917928538175,101669.5,131072,0,
1594840096549559822,22.0,-64.0,963.0,-0.1875,0.125,0.0,25.0625,10.5625,-71.5,0.999258301630135,-0.03259247086919693,-0.020507622119944134,0.00012206917928538175,101669.5,131072,0,
1594840096574995176,22.0,-64.0,960.0,-0.125,0.0,0.0,25.0625,10.5625,-71.5,0.999258301630135,-0.03259247086919693,-0.020507622119944134,0.00012206917928538175,101669.5,131072,0,
1594840096599878087,23.0,-64.0,957.0,-0.125,0.0625,-0.0625,24.75,10.5625,-71.875,0.999258301630135,-0.03259247086919693,-0.020507622119944134,0.00012206917928538175,101669.5,131072,0,
1594840096624888855,23.0,-62.0,960.0,-0.0625,0.0625,0.0,24.75,10.5625,-71.875,0.999258301630135,-0.03259247086919693,-0.020507622119944134,0.00012206917928538175,101669.5,131072,0,
1594840096650395706,23.0,-63.0,962.0,0.1875,0.1875,-0.0625,25.0625,10.875,-71.0625,0.999258301630135,-0.03259247086919693,-0.020507622119944134,0.00012206917928538175,101669.25,131072,0,
1594840096676102400,23.0,-66.0,958.0,0.0625,-0.0625,0.0,25.0625,10.875,-71.0625,0.999258301630135,-0.03259247086919693,-0.020507622119944134,0.00012206917928538175,101669.25,131072,0,
1594840096700707085,23.0,-62.0,961.0,0.0,0.0625,-0.125,25.375,11.25,-71.875,0.999258301630135,-0.03259247086919693,-0.020507622119944134,0.00012206917928538175,101669.25,131072,0,
1594840096727265323,22.0,-62.0,961.0,0.0,0.0,-0.0625,25.375,11.25,-71.875,0.999258301630135,-0.03259247086919693,-0.020507622119944134,0.00012206917928538175,101669.25,131072,0,
1594840096753511220,21.0,-62.0,958.0,0.125,0.0,0.0,25.375,11.25,-71.0625,0.999258301630135,-0.03259247086919693,-0.020507622119944134,0.00012206917928538175,101669.25,131072,0,
1594840096779022076,22.0,-65.0,962.0,0.0625,-0.125,-0.0625,25.375,11.25,-71.0625,0.999258301630135,-0.03259247086919693,-0.020507622119944134,0.00012206917928538175,101669.25,131072,0,
1594840096804111531,23.0,-63.0,960.0,0.0,0.0,-0.0625,24.75,10.875,-70.25,0.999258301630135,-0.03259247086919693,-0.020507622119944134,0.00012206917928538175,101669.25,131072,0,
1594840096829413881,22.0,-63.0,958.0,-0.125,0.0625,-0.0625,24.75,10.875,-70.25,0.999258301630135,-0.03259247086919693,-0.020507622119944134,0.00012206917928538175,101669.25,131072,0,
1594840096855934780,20.0,-65.0,962.0,-0.125,0.0,0.0,25.375,11.25,-71.5,0.999258301630135,-0.03259247086919693,-0.020507622119944134,0.00012206917928538175,101669.25,131072,0,
1594840096880795236,23.0,-64.0,961.0,0.1875,0.0,0.0,25.375,11.25,-71.5,0.999258301630135,-0.03259247086919693,-0.020507622119944134,0.00012206917928538175,101669.25,131072,0,
1594840096907584053,23.0,-63.0,962.0,0.125,-0.125,0.0625,25.75,11.25,-72.25,0.999258301630135,-0.03259247086919693,-0.020507622119944134,0.00012206917928538175,101669.25,131072,0,
1594840096936122156,21.0,-65.0,959.0,-0.0625,-0.0625,0.0,25.75,11.25,-72.25,0.999258301630135,-0.03259247086919693,-0.020507622119944134,0.00012206917928538175,101669.25,131072,0,
1594840096966640027,24.0,-64.0,961.0,0.0625,0.0,0.0,24.375,10.5625,-72.25,0.999258301630135,-0.03259247086919693,-0.020507622119944134,0.00012206917928538175,101669.25,131072,0,
1594840096997797790,22.0,-63.0,961.0,0.0,-0.0625,-0.0625,25.375,10.875,-71.875,0.999258301630135,-0.03259247086919693,-0.020507622119944134,0.00012206917928538175,101669.25,131072,0,
1594840097031536273,23.0,-61.0,959.0,-15.9375,0.1875,-0.0625,25.375,10.875,-71.875,0.999258301630135,-0.03259247086919693,-0.020507622119944134,0.00012206917928538175,101674.25,131072,0,
1594840097065129208,23.0,-64.0,959.0,0.125,-0.25,0.125,24.375,10.1875,-71.875,0.999258301630135,-0.03259247086919693,-0.020507622119944134,0.00012206917928538175,101674.25,131072,0,
1594840097099160909,22.0,-62.0,965.0,-0.125,-0.125,-0.0625,24.75,11.6875,-71.875,0.999258301630135,-0.03259247086919693,-0.020507622119944134,0.00012206917928538175,101674.25,131072,0,
1594840097134771693,22.0,-64.0,962.0,0.125,-0.0625,0.0,24.75,11.6875,-71.875,0.999258301630135,-0.03259247086919693,-0.020507622119944134,0.00012206917928538175,101674.25,131072,0,
1594840097166286562,23.0,-61.0,962.0,-0.125,-0.0625,0.125,24.375,10.875,-71.5,0.999258301630135,-0.03259247086919693,-0.020507622119944134,0.00012206917928538175,101674.25,131072,0,
1594840097197485311,23.0,-61.0,961.0,-0.125,-0.0625,0.125,25.0625,11.25,-72.375,0.999258301630135,-0.03259247086919693,-0.020507622119944134,0.00012206917928538175,101674.25,131072,0,
1594840097231004082,23.0,-61.0,958.0,-0.4375,-0.0625,0.0,25.0625,11.25,-72.375,0.999258301630135,-0.03259247086919693,-0.020507622119944134,0.00012206917928538175,101674.25,131072,0,
1594840097265159809,22.0,-62.0,959.0,0.125,0.0,0.0,25.0625,11.6875,-72.6875,0.999258301630135,-0.03259247086919693,-0.020507622119944134,0.00012206917928538175,101674.25,131072,0,
1594840097299917111,23.0,-64.0,959.0,-0.0625,0.0625,0.0625,24.375,11.6875,-71.875,0.999258301630135,-0.03259247086919693,-0.020507622119944134,0.00012206917928538175,101674.25,131072,0,
1594840097333132754,23.0,-65.0,960.0,-0.0625,-0.125,0.0625,24.375,11.6875,-71.875,0.999258301630135,-0.03259247086919693,-0.020507622119944134,0.00012206917928538175,101674.25,131072,0,
1594840097373193186,23.0,-65.0,961.0,0.0,-0.125,0.0,25.0625,11.25,-72.6875,0.999258301630135,-0.03259247086919693,-0.020507622119944134,0.00012206917928538175,101674.25,131072,0,
1594840097407298615,24.0,-64.0,962.0,0.125,0.0625,0.0,25.0625,10.875,-72.25,0.999258301630135,-0.03259247086919693,-0.020507622119944134,0.00012206917928538175,101677.0,131072,0,
1594840097443081270,23.0,-66.0,961.0,-0.125,0.0625,-0.0625,25.0625,10.875,-72.25,0.999258301630135,-0.03259247086919693,-0.020507622119944134,0.00012206917928538175,101677.0,131072,0,
1594840097478200731,23.0,-64.0,958.0,-0.125,0.0625,0.0625,24.75,10.5625,-71.0625,0.999258301630135,-0.03259247086919693,-0.020507622119944134,0.00012206917928538175,101677.0,131072,0,
1594840097513117743,24.0,-65.0,962.0,0.0,-0.125,0.0,24.0,10.875,-72.75,0.999258301630135,-0.03259247086919693,-0.020507622119944134,0.00012206917928538175,101677.0,131072,0,
1594840097553461792,22.0,-62.0,961.0,0.1875,0.0625,-0.0625,25.0625,10.875,-73.0625,0.999258301630135,-0.03259247086919693,-0.020507622119944134,0.00012206917928538175,101677.0,131072,0,
1594840097587638490,23.0,-64.0,960.0,-0.0625,0.0625,-0.125,25.0625,10.875,-73.0625,0.999258301630135,-0.03259247086919693,-0.020507622119944134,0.00012206917928538175,101677.0,131072,0,
1594840097619031604,22.0,-64.0,957.0,-0.0625,-0.1875,0.0,25.0625,10.875,-71.5625,0.999258301630135,-0.03259247086919693,-0.020507622119944134,0.00012206917928538175,101677.0,131072,0,
1594840097650631646,22.0,-62.0,961.0,-0.0625,-0.125,-0.0625,25.375,10.5625,-73.875,0.999258301630135,-0.03259247086919693,-0.020507622119944134,0.00012206917928538175,101677.0,131072,0,
1594840097683588268,22.0,-62.0,961.0,0.0625,-0.125,0.0,25.375,10.5625,-73.875,0.999258301630135,-0.03259247086919693,-0.020507622119944134,0.00012206917928538175,101677.0,131072,0,
1594840097716482880,23.0,-64.0,961.0,-0.1875,0.0625,0.0,25.375,10.5625,-72.75,0.999258301630135,-0.03259247086919693,-0.020507622119944134,0.00012206917928538175,101677.0,131072,0,
1594840097753520258,23.0,-61.0,961.0,0.125,-0.125,0.0,24.375,11.25,-72.0,0.999258301630135,-0.03259247086919693,-0.020507622119944134,0.00012206917928538175,101677.0,131072,0,
1594840097786281642,23.0,-62.0,963.0,-0.125,-0.0625,-0.0625,24.375,11.25,-72.0,0.999258301630135,-0.03259247086919693,-0.020507622119944134,0.00012206917928538175,101668.75,131072,0,
1594840097819524429,23.0,-64.0,959.0,0.1875,-0.25,0.0,25.0625,11.6875,-72.375,0.999258301630135,-0.03259247086919693,-0.020507622119944134,0.00012206917928538175,101668.75,131072,0,
1594840097850704295,23.0,-62.0,962.0,-0.0625,0.0,0.0,25.375,11.25,-72.75,0.999258301630135,-0.03259247086919693,-0.020507622119944134,0.00012206917928538175,101668.75,131072,0,
1594840097878020363,23.0,-63.0,961.0,0.0,0.0625,0.0,25.375,11.25,-72.75,0.999258301630135,-0.03259247086919693,-0.020507622119944134,0.00012206917928538175,101668.75,131072,0,
1594840097901775094,24.0,-62.0,961.0,-0.125,0.0,-0.125,25.0625,10.5625,-72.375,0.999258301630135,-0.03259247086919693,-0.020507622119944134,0.00012206917928538175,101668.75,131072,0,
1594840097926693214,22.0,-65.0,961.0,-0.125,0.0,0.0,25.0625,10.5625,-72.375,0.999258301630135,-0.03259247086919693,-0.020507622119944134,0.00012206917928538175,101668.75,131072,0,
1594840097950750796,25.0,-62.0,959.0,0.1875,0.0625,0.0,24.375,11.25,-72.75,0.999258301630135,-0.03259247086919693,-0.020507622119944134,0.00012206917928538175,101668.75,131072,0,
1594840097973834624,25.0,-64.0,959.0,0.0,0.125,0.0625,24.375,11.25,-72.75,0.999258301630135,-0.03259247086919693,-0.020507622119944134,0.00012206917928538175,101668.75,131072,0,
1594840097996875104,22.0,-64.0,961.0,0.125,0.0,0.0625,24.375,11.25,-72.75,0.999258301630135,-0.03259247086919693,-0.020507622119944134,0.00012206917928538175,101668.75,131072,0,
1594840098020530689,25.0,-63.0,961.0,0.0,0.125,-0.0625,25.75,10.875,-71.5625,0.999258301630135,-0.03259247086919693,-0.020507622119944134,0.00012206917928538175,101668.75,131072,0,
1594840098043833937,22.0,-65.0,959.0,0.1875,0.25,0.0625,25.75,10.875,-71.5625,0.999258301630135,-0.03259247086919693,-0.020507622119944134,0.00012206917928538175,101668.75,131072,0,
1594840098067015681,23.0,-63.0,959.0,-0.0625,0.1875,0.0,24.75,10.5625,-71.5625,0.999258301630135,-0.03259247086919693,-0.020507622119944134,0.00012206917928538175,101668.75,131072,0,
1594840098091666970,24.0,-64.0,958.0,0.0,0.1875,0.0,24.75,10.5625,-71.5625,0.999258301630135,-0.03259247086919693,-0.020507622119944134,0.00012206917928538175,101668.75,131072,0,
1594840098114867235,24.0,-64.0,962.0,-0.125,-0.0625,0.0625,25.375,11.25,-71.1875,0.999258301630135,-0.03259247086919693,-0.020507622119944134,0.00012206917928538175,101668.75,131072,0,
1594840098137863634,23.0,-62.0,959.0,0.1875,0.0625,0.0,25.375,11.25,-71.1875,0.999258301630135,-0.03259247086919693,-0.020507622119944134,0.00012206917928538175,101668.75,131072,0,
1594840098160931501,24.0,-64.0,959.0,0.25,0.0,0.0,24.75,10.875,-72.0,0.999258301630135,-0.03259247086919693,-0.020507622119944134,0.00012206917928538175,101671.25,131072,0,
1594840098183992459,22.0,-61.0,958.0,0.0625,0.0625,0.0625,24.75,10.875,-72.0,0.999258301630135,-0.03259247086919693,-0.020507622119944134,0.00012206917928538175,101671.25,131072,0,
1594840098207938787,23.0,-62.0,962.0,0.125,0.0625,-0.0625,24.75,10.875,-72.0,0.999258301630135,-0.03259247086919693,-0.020507622119944134,0.00012206917928538175,101671.25,131072,0,
1594840098231379379,22.0,-64.0,960.0,-0.125,0.25,-0.0625,25.0625,10.5625,-71.875,0.999258301630135,-0.03259247086919693,-0.020507622119944134,0.00012206917928538175,101671.25,131072,0,
1594840098255627151,22.0,-63.0,958.0,-0.3125,0.0,-0.0625,25.0625,10.5625,-71.875,0.999258301630135,-0.03259247086919693,-0.020507622119944134,0.00012206917928538175,101671.25,131072,0,
1594840098279278401,24.0,-62.0,958.0,0.125,0.125,0.0,24.75,11.25,-72.75,0.999258301630135,-0.03259247086919693,-0.020507622119944134,0.00012206917928538175,101671.25,131072,0,
1594840098309806997,22.0,-62.0,963.0,-0.125,0.1875,-0.0625,24.75,10.5625,-72.375,0.999258301630135,-0.03259247086919693,-0.020507622119944134,0.00012206917928538175,101671.25,131072,0,
1594840098334089390,23.0,-64.0,958.0,0.0,0.0625,-0.0625,24.75,10.5625,-72.375,0.999258301630135,-0.03259247086919693,-0.020507622119944134,0.00012206917928538175,101671.25,131072,0,
1594840098357897111,23.0,-63.0,965.0,0.0625,0.1875,-0.0625,24.75,10.5625,-72.375,0.999258301630135,-0.03259247086919693,-0.020507622119944134,0.00012206917928538175,101671.25,131072,0,
1594840098380976949,24.0,-62.0,960.0,-0.0625,-0.3125,-0.0625,25.0625,11.25,-72.375,0.999258301630135,-0.03259247086919693,-0.020507622119944134,0.00012206917928538175,101671.25,131072,0,
1594840098403902634,22.0,-63.0,959.0,-0.1875,-0.0625,0.0625,25.0625,11.25,-72.375,0.999258301630135,-0.03259247086919693,-0.020507622119944134,0.00012206917928538175,101671.25,131072,0,
1594840098426724777,22.0,-62.0,964.0,-0.0625,-0.0625,-0.0625,24.75,10.5625,-73.1875,0.999258301630135,-0.03259247086919693,-0.020507622119944134,0.00012206917928538175,101671.25,131072,0,
1594840098455258618,22.0,-62.0,961.0,0.0,-0.0625,-0.0625,24.75,10.5625,-73.1875,0.999258301630135,-0.03259247086919693,-0.020507622119944134,0.00012206917928538175,101671.25,131072,0,
1594840098478036386,25.0,-64.0,962.0,0.25,-0.0625,0.0625,24.75,11.25,-72.75,0.999258301630135,-0.03259247086919693,-0.020507622119944134,0.00012206917928538175,101671.25,131072,0,
1594840098501875067,22.0,-62.0,959.0,0.125,0.25,-0.0625,24.75,11.25,-72.75,0.999258301630135,-0.03259247086919693,-0.020507622119944134,0.00012206917928538175,101671.25,131072,0,
1594840098527680956,23.0,-63.0,960.0,0.125,-0.1875,-0.0625,24.0,12.0,-72.375,0.999258301630135,-0.03259247086919693,-0.020507622119944134,0.00012206917928538175,101671.25,131072,0,
1594840098556976166,22.0,-65.0,958.0,-0.0625,0.0,-0.1875,25.375,10.1875,-72.0,0.999258301630135,-0.03259247086919693,-0.020507622119944134,0.00012206917928538175,101676.0,131072,0,
1594840098581252922,23.0,-64.0,960.0,-0.0625,-0.0625,-0.0625,25.375,10.1875,-72.0,0.999258301630135,-0.03259247086919693,-0.020507622119944134,0.00012206917928538175,101676.0,131072,0,
1594840098605655177,21.0,-60.0,963.0,0.125,0.0,0.0,24.75,11.25,-72.75,0.999258301630135,-0.03259247086919693,-0.020507622119944134,0.00012206917928538175,101676.0,131072,0,
1594840098629416972,23.0,-65.0,960.0,0.125,-0.125,0.125,24.75,11.25,-72.75,0.999258301630135,-0.03259247086919693,-0.020507622119944134,0.00012206917928538175,101676.0,131072,0,
1594840098653631043,23.0,-65.0,960.0,-0.25,0.0625,-0.125,24.75,11.25,-72.75,0.999258301630135,-0.03259247086919693,-0.020507622119944134,0.00012206917928538175,101676.0,131072,0,
1594840098677652074,24.0,-63.0,960.0,0.125,-0.0625,-0.125,24.75,11.25,-72.375,0.999258301630135,-0.03259247086919693,-0.020507622119944134,0.00012206917928538175,101676.0,131072,0,
1594840098702430211,22.0,-65.0,961.0,0.0,0.125,-0.0625,24.75,11.25,-72.375,0.999258301630135,-0.03259247086919693,-0.020507622119944134,0.00012206917928538175,101676.0,131072,0,
1594840098729256634,22.0,-63.0,959.0,-0.0625,-0.1875,-0.125,24.375,10.5625,-72.75,0.999258301630135,-0.03259247086919693,-0.020507622119944134,0.00012206917928538175,101676.0,131072,0,
1594840098756695884,24.0,-64.0,961.0,0.0,-0.1875,-0.0625,24.375,10.5625,-72.375,0.999258301630135,-0.03259247086919693,-0.020507622119944134,0.00012206917928538175,101676.0,131072,0,
1594840098781952115,22.0,-63.0,961.0,0.125,0.125,0.0625,24.375,10.5625,-72.375,0.999258301630135,-0.03259247086919693,-0.020507622119944134,0.00012206917928538175,101676.0,131072,0,
1594840098806965095,24.0,-61.0,959.0,-0.125,0.0625,0.0,24.75,11.6875,-72.375,0.999258301630135,-0.03259247086919693,-0.020507622119944134,0.00012206917928538175,101676.0,131072,0,
1594840098833785627,22.0,-62.0,955.0,0.25,0.0,0.0,24.75,11.6875,-72.375,0.999258301630135,-0.03259247086919693,-0.020507622119944134,0.00012206917928538175,101676.0,131072,0,
1594840098860136310,24.0,-65.0,963.0,0.0625,0.0625,0.0,25.0625,10.5625,-71.5625,0.999258301630135,-0.03259247086919693,-0.020507622119944134,0.00012206917928538175,101676.0,131072,0,
1594840098885225014,23.0,-63.0,958.0,-0.125,-0.0625,-0.125,25.0625,10.5625,-71.5625,0.999258301630135,-0.03259247086919693,-0.020507622119944134,0.00012206917928538175,101676.0,131072,0,
1594840098910190103,22.0,-62.0,962.0,0.1875,-0.125,0.0,24.375,10.875,-72.375,0.999258301630135,-0.03259247086919693,-0.020507622119944134,0.00012206917928538175,101673.5,131072,0,
1594840098936169301,21.0,-62.0,961.0,0.0625,0.0625,-0.0625,24.375,10.875,-72.375,0.999258301630135,-0.03259247086919693,-0.020507622119944134,0.00012206917928538175,101673.5,131072,0,
1594840098961903989,24.0,-62.0,963.0,0.0625,0.0625,-0.125,24.75,11.25,-72.375,0.999258301630135,-0.03259247086919693,-0.020507622119944134,0.00012206917928538175,101673.5,131072,0,
1594840098986281205,23.0,-64.0,958.0,-0.25,0.1875,0.0,24.75,11.25,-72.375,0.999258301630135,-0.03259247086919693,-0.020507622119944134,0.00012206917928538175,101673.5,131072,0,
1594840099010879690,21.0,-65.0,961.0,0.0,-0.375,0.0,24.75,10.5625,-72.375,0.999258301630135,-0.03259247086919693,-0.020507622119944134,0.00012206917928538175,101673.5,131072,0,
1594840099036516489,24.0,-63.0,961.0,0.0625,0.1875,0.0,24.75,10.5625,-72.375,0.999258301630135,-0.03259247086919693,-0.020507622119944134,0.00012206917928538175,101673.5,131072,0,
1594840099062146832,23.0,-64.0,961.0,0.0,0.0625,-0.0625,24.375,11.25,-70.75,0.999258301630135,-0.03259247086919693,-0.020507622119944134,0.00012206917928538175,101673.5,131072,0,
1594840099087205658,25.0,-64.0,960.0,0.0,-0.0625,0.0,24.375,11.25,-70.75,0.999258301630135,-0.03259247086919693,-0.020507622119944134,0.00012206917928538175,101673.5,131072,0,
1594840099112413262,23.0,-63.0,961.0,-0.125,0.0,0.0,25.0625,10.875,-72.375,0.999258301630135,-0.03259247086919693,-0.020507622119944134,0.00012206917928538175,101673.5,131072,0,
1594840099153222488,22.0,-63.0,962.0,0.0625,-0.0625,-0.0625,25.0625,11.25,-72.0,0.999258301630135,-0.03259247086919693,-0.020507622119944134,0.00012206917928538175,101673.5,131072,0,
1594840099190667378,24.0,-61.0,959.0,0.0,0.0625,-0.0625,25.0625,11.25,-72.0,0.999258301630135,-0.03259247086919693,-0.020507622119944134,0.00012206917928538175,101673.5,131072,0,
1594840099227074440,23.0,-64.0,964.0,0.0625,-0.1875,0.0,24.75,11.25,-72.0,0.999258301630135,-0.03259247086919693,-0.020507622119944134,0.00012206917928538175,101673.5,131072,0,
1594840099262805932,23.0,-62.0,965.0,0.1875,-0.1875,0.0625,25.375,10.875,-73.1875,0.999258301630135,-0.03259247086919693,-0.020507622119944134,0.00012206917928538175,101673.5,131072,0,
1594840099297373929,23.0,-64.0,956.0,-0.0625,0.125,0.0,25.375,10.875,-73.1875,0.999258301630135,-0.03259247086919693,-0.020507622119944134,0.00012206917928538175,101674.25,131072,0,
1594840099332321415,24.0,-63.0,961.0,0.125,0.0,0.0,25.375,10.1875,-72.0,0.999258301630135,-0.03259247086919693,-0.020507622119944134,0.00012206917928538175,101674.25,131072,0,
1594840099362835443,24.0,-62.0,963.0,0.125,0.0625,-0.0625,25.375,10.1875,-72.0,0.999258301630135,-0.03259247086919693,-0.020507622119944134,0.00012206917928538175,101674.25,131072,0,
1594840099392847071,22.0,-63.0,959.0,-0.0625,0.1875,0.0,25.375,10.875,-72.0,0.999258301630135,-0.03259247086919693,-0.020507622119944134,0.00012206917928538175,101674.25,131072,0,
1594840099419436719,24.0,-62.0,962.0,-0.25,-0.125,-0.0625,25.0625,11.6875,-72.0,0.999258301630135,-0.03259247086919693,-0.020507622119944134,0.00012206917928538175,101674.25,131072,0,
1594840099445594865,25.0,-62.0,961.0,0.0,-0.125,0.0,25.0625,11.6875,-72.0,0.999258301630135,-0.03259247086919693,-0.020507622119944134,0.00012206917928538175,101674.25,131072,0,
1594840099471107168,25.0,-63.0,961.0,-0.125,0.125,-0.0625,24.75,11.6875,-72.75,0.999258301630135,-0.03259247086919693,-0.020507622119944134,0.00012206917928538175,101674.25,131072,0,
1594840099495082747,23.0,-61.0,962.0,-0.25,-0.125,0.0625,24.75,11.6875,-72.75,0.999258301630135,-0.03259247086919693,-0.020507622119944134,0.00012206917928538175,101674.25,131072,0,
1594840099519145643,23.0,-63.0,963.0,-0.125,-0.1875,0.125,25.0625,10.1875,-72.0,0.999258301630135,-0.03259247086919693,-0.020507622119944134,0.00012206917928538175,101674.25,131072,0,
1594840099544104339,23.0,-64.0,959.0,-0.1875,-0.1875,0.0,25.0625,10.1875,-72.0,0.999258301630135,-0.03259247086919693,-0.020507622119944134,0.00012206917928538175,101674.25,131072,0,
1594840099568333242,23.0,-62.0,964.0,0.0625,0.0625,-0.0625,24.75,11.25,-72.375,0.999258301630135,-0.03259247086919693,-0.020507622119944134,0.00012206917928538175,101674.25,131072,0,
1594840099593680398,23.0,-64.0,962.0,0.0625,0.125,0.0,24.75,11.25,-72.375,0.999258301630135,-0.03259247086919693,-0.020507622119944134,0.00012206917928538175,101674.25,131072,0,
1594840099624431039,24.0,-64.0,962.0,-0.25,0.25,-0.0625,25.0625,11.25,-72.0,0.999258301630135,-0.03259247086919693,-0.020507622119944134,0.00012206917928538175,101674.25,131072,0,
1594840099651030570,22.0,-63.0,960.0,-0.0625,0.0,0.0,25.0625,11.25,-72.0,0.999258301630135,-0.03259247086919693,-0.020507622119944134,0.00012206917928538175,101674.25,131072,0,
1594840099685564979,23.0,-64.0,966.0,0.125,0.0,0.0625,24.0,10.875,-72.375,0.999258301630135,-0.03259247086919693,-0.020507622119944134,0.00012206917928538175,101678.25,131072,0,
1594840099717091208,24.0,-63.0,961.0,0.0625,0.0,-0.0625,24.75,10.875,-71.1875,0.999258301630135,-0.03259247086919693,-0.020507622119944134,0.00012206917928538175,101678.25,131072,0,
1594840099758050229,22.0,-64.0,960.0,-0.0625,-0.125,-0.0625,24.75,10.875,-71.1875,0.999258301630135,-0.03259247086919693,-0.020507622119944134,0.00012206917928538175,101678.25,131072,0,
1594840099786313479,23.0,-61.0,962.0,0.0,0.0,-0.0625,24.0,10.5625,-72.75,0.999258301630135,-0.03259247086919693,-0.020507622119944134,0.00012206917928538175,101678.25,131072,0,
1594840099812089768,22.0,-62.0,962.0,0.25,0.0,0.0,24.0,10.5625,-72.75,0.999258301630135,-0.03259247086919693,-0.020507622119944134,0.00012206917928538175,101678.25,131072,0,
1594840099837844277,23.0,-65.0,961.0,-0.125,0.25,-0.0625,25.0625,10.5625,-71.5625,0.999258301630135,-0.03259247086919693,-0.020507622119944134,0.00012206917928538175,101678.25,131072,0,
1594840099863514209,23.0,-63.0,963.0,0.125,-0.3125,-0.0625,25.0625,10.5625,-71.5625,0.999258301630135,-0.03259247086919693,-0.020507622119944134,0.00012206917928538175,101678.25,131072,0,
1594840099889418035,21.0,-61.0,960.0,0.1875,-0.0625,0.0,24.75,11.25,-72.75,0.999258301630135,-0.03259247086919693,-0.020507622119944134,0.00012206917928538175,101678.25,131072,0,
1594840099914624599,21.0,-63.0,962.0,-0.0625,0.125,0.0,24.375,11.25,-72.0,0.999258301630135,-0.03259247086919693,-0.020507622119944134,0.00012206917928538175,101678.25,131072,0,
1594840099940106106,23.0,-63.0,959.0,0.0,0.125,0.0,24.375,11.25,-72.0,0.999258301630135,-0.03259247086919693,-0.020507622119944134,0.00012206917928538175,101678.25,131072,0,
1594840099966067244,24.0,-63.0,965.0,-0.0625,0.125,0.0,24.75,11.25,-72.0,0.999258301630135,-0.03259247086919693,-0.020507622119944134,0.00012206917928538175,101678.25,131072,0,
1594840099994230053,22.0,-62.0,961.0,0.1875,0.1875,0.0,24.75,11.25,-72.0,0.999258301630135,-0.03259247086919693,-0.020507622119944134,0.00012206917928538175,101678.25,131072,0,
1594840100030074879,22.0,-62.0,966.0,0.0,0.0,-0.0625,24.375,11.6875,-72.0,0.999258301630135,-0.03259247086919693,-0.020507622119944134,0.00012206917928538175,101678.25,131072,0,
1594840100062903001,23.0,-62.0,962.0,-0.0625,0.0625,0.0,24.75,10.5625,-73.1875,0.999258301630135,-0.03259247086919693,-0.020507622119944134,0.00012206917928538175,101676.75,131072,0,
1594840100095581330,23.0,-63.0,960.0,0.0625,0.0625,0.0,24.75,10.5625,-73.1875,0.999258301630135,-0.03259247086919693,-0.020507622119944134,0.00012206917928538175,101676.75,131072,0,
1594840100129335089,22.0,-62.0,963.0,0.0625,0.1875,0.0,24.75,10.875,-72.375,0.999258301630135,-0.03259247086919693,-0.020507622119944134,0.00012206917928538175,101676.75,131072,0,
1594840100163161060,22.0,-63.0,959.0,-0.125,0.0,-0.0625,24.375,11.25,-72.375,0.999258301630135,-0.03259247086919693,-0.020507622119944134,0.00012206917928538175,101676.75,131072,0,
1594840100195645046,24.0,-64.0,958.0,-0.125,0.125,0.0,24.375,11.25,-72.375,0.999258301630135,-0.03259247086919693,-0.020507622119944134,0.00012206917928538175,101676.75,131072,0,
1594840100228234516,22.0,-62.0,961.0,0.0625,-0.0625,0.0625,25.0625,10.875,-72.375,0.999258301630135,-0.03259247086919693,-0.020507622119944134,0.00012206917928538175,101676.75,131072,0,
1594840100260026686,24.0,-65.0,962.0,-0.125,0.1875,-0.0625,25.0625,10.875,-72.375,0.999258301630135,-0.03259247086919693,-0.020507622119944134,0.00012206917928538175,101676.75,131072,0,
1594840100292970954,22.0,-63.0,957.0,0.0625,-0.0625,0.0625,25.0625,11.6875,-73.1875,0.999258301630135,-0.03259247086919693,-0.020507622119944134,0.00012206917928538175,101676.75,131072,0,
1594840100326017048,21.0,-62.0,959.0,0.0625,0.0625,0.0,24.75,10.5625,-73.1875,0.999258301630135,-0.03259247086919693,-0.020507622119944134,0.00012206917928538175,101676.75,131072,0,
1594840100354019098,23.0,-61.0,958.0,-0.0625,0.0625,0.0625,24.75,10.5625,-73.1875,0.999258301630135,-0.03259247086919693,-0.020507622119944134,0.00012206917928538175,101676.75,131072,0,
1594840100379546708,23.0,-64.0,961.0,-0.0625,-0.0625,-0.0625,24.375,11.6875,-71.5625,0.999258301630135,-0.03259247086919693,-0.020507622119944134,0.00012206917928538175,101676.75,131072,0,
1594840100405171052,22.0,-62.0,960.0,-0.0625,0.0625,-0.125,24.375,11.6875,-71.5625,0.999258301630135,-0.03259247086919693,-0.020507622119944134,0.00012206917928538175,101676.75,131072,0,
1594840100428706948,26.0,-65.0,961.0,-0.1875,-0.125,-0.0625,24.75,11.25,-70.75,0.999258301630135,-0.03259247086919693,-0.020507622119944134,0.00012206917928538175,101677.25,131072,0,
1594840100454023615,23.0,-63.0,960.0,0.0,0.0625,-0.0625,24.75,11.25,-70.75,0.999258301630135,-0.03259247086919693,-0.020507622119944134,0.00012206917928538175,101677.25,131072,0,
1594840100478136508,22.0,-62.0,962.0,-0.0625,-0.25,0.0625,25.375,10.1875,-72.375,0.999258301630135,-0.03259247086919693,-0.020507622119944134,0.00012206917928538175,101677.25,131072,0,
1594840100501938582,23.0,-60.0,963.0,0.125,-0.25,-0.125,25.375,10.1875,-72.375,0.999258301630135,-0.03259247086919693,-0.020507622119944134,0.00012206917928538175,101677.25,131072,0,
1594840100527146069,24.0,-64.0,961.0,-0.0625,0.0,0.0,25.0625,10.5625,-73.1875,0.999258301630135,-0.03259247086919693,-0.020507622119944134,0.00012206917928538175,101677.25,131072,0,
1594840100550954088,22.0,-64.0,958.0,0.0,0.0625,0.0625,25.0625,10.5625,-73.1875,0.999258301630135,-0.03259247086919693,-0.020507622119944134,0.00012206917928538175,101677.25,131072,0,
1594840100576158434,23.0,-64.0,963.0,0.0,-0.1875,0.0,25.0625,10.875,-72.75,0.999258301630135,-0.03259247086919693,-0.020507622119944134,0.00012206917928538175,101677.25,131072,0,
1594840100601104024,22.0,-63.0,960.0,-0.125,-0.125,-0.0625,25.0625,10.875,-72.75,0.999258301630135,-0.03259247086919693,-0.020507622119944134,0.00012206917928538175,101677.25,131072,0,
1594840100626520628,22.0,-62.0,962.0,0.0,-0.0625,-0.0625,25.0625,11.25,-71.5625,0.999258301630135,-0.03259247086919693,-0.020507622119944134,0.00012206917928538175,101677.25,131072,0,
1594840100652762189,23.0,-63.0,961.0,0.0,-0.1875,-0.125,25.0625,11.25,-71.5625,0.999258301630135,-0.03259247086919693,-0.020507622119944134,0.00012206917928538175,101677.25,131072,0,
1594840100677419118,24.0,-66.0,962.0,0.0,0.0,-0.125,25.375,11.25,-71.5625,0.999258301630135,-0.03259247086919693,-0.020507622119944134,0.00012206917928538175,101677.25,131072,0,
1594840100702753421,22.0,-61.0,962.0,0.0,-0.3125,0.0,25.375,11.25,-71.5625,0.999258301630135,-0.03259247086919693,-0.020507622119944134,0.00012206917928538175,101677.25,131072,0,
1594840100734575840,24.0,-63.0,961.0,-0.25,-0.0625,0.0,24.75,10.875,-72.375,0.999258301630135,-0.03259247086919693,-0.020507622119944134,0.00012206917928538175,101677.25,131072,0,
1594840100763477771,23.0,-64.0,964.0,0.0,-0.0625,-0.0625,24.75,10.875,-72.375,0.999258301630135,-0.03259247086919693,-0.020507622119944134,0.00012206917928538175,101677.25,131072,0,
1594840100795088663,25.0,-63.0,958.0,0.1875,0.0625,0.0625,24.75,10.875,-71.5625,0.999258301630135,-0.03259247086919693,-0.020507622119944134,0.00012206917928538175,101677.25,131072,0,
1594840100820850003,23.0,-65.0,960.0,-0.125,-0.125,0.0,24.75,10.875,-71.5625,0.999258301630135,-0.03259247086919693,-0.020507622119944134,0.00012206917928538175,101677.25,131072,0,
1594840100844080505,23.0,-61.0,962.0,-0.0625,-0.0625,-0.0625,24.375,10.875,-71.1875,0.999258301630135,-0.03259247086919693,-0.020507622119944134,0.00012206917928538175,101677.25,131072,0,
1594840100867310226,22.0,-63.0,961.0,0.0,-0.0625,-0.125,24.375,10.875,-71.1875,0.999258301630135,-0.03259247086919693,-0.020507622119944134,0.00012206917928538175,101677.25,131072,0,
1594840100890883859,23.0,-64.0,960.0,0.0,0.0625,0.0,25.5,10.1875,-72.0625,0.999258301630135,-0.03259247086919693,-0.020507622119944134,0.00012206917928538175,101677.25,131072,0,
1594840100915964826,23.0,-62.0,961.0,0.125,-0.125,0.0,25.5,10.1875,-72.0625,0.999258301630135,-0.03259247086919693,-0.020507622119944134,0.00012206917928538175,101677.25,131072,0,
1594840100940965834,22.0,-63.0,961.0,0.0,0.0625,0.0625,24.375,11.25,-71.25,0.999258301630135,-0.03259247086919693,-0.020507622119944134,0.00012206917928538175,101677.25,131072,0,
1594840100965558281,24.0,-62.0,958.0,0.125,0.0,0.0625,24.375,11.25,-71.25,0.999258301630135,-0.03259247086919693,-0.020507622119944134,0.00012206917928538175,101677.25,131072,0,
1594840100989888459,23.0,-64.0,961.0,0.125,0.125,0.0625,25.75,10.1875,-72.0,0.999258301630135,-0.03259247086919693,-0.020507622119944134,0.00012206917928538175,101677.25,131072,0,
1594840101016175172,22.0,-63.0,960.0,-0.125,0.1875,-0.0625,25.75,10.1875,-72.0,0.999258301630135,-0.03259247086919693,-0.020507622119944134,0.00012206917928538175,101677.25,131072,0,
1594840101039957181,23.0,-64.0,963.0,0.0,0.0625,0.125,24.375,10.875,-71.25,0.999258301630135,-0.03259247086919693,-0.020507622119944134,0.00012206917928538175,101677.25,131072,0,
1594840101063807635,23.0,-61.0,959.0,0.125,-0.25,-0.0625,24.375,10.875,-71.25,0.999258301630135,-0.03259247086919693,-0.020507622119944134,0.00012206917928538175,101677.25,131072,0,
1594840101093289542,24.0,-63.0,961.0,-0.1875,0.1875,-0.125,24.75,10.875,-72.0,0.999258301630135,-0.03259247086919693,-0.020507622119944134,0.00012206917928538175,101677.25,131072,0,
1594840101123988600,21.0,-63.0,961.0,0.0,0.0,0.0625,24.75,10.875,-72.0,0.999258301630135,-0.03259247086919693,-0.020507622119944134,0.00012206917928538175,101677.25,131072,0,
1594840101147652564,24.0,-64.0,961.0,-0.125,0.0,0.0625,24.75,11.25,-72.0625,0.999258301630135,-0.03259247086919693,-0.020507622119944134,0.00012206917928538175,101677.25,131072,0,
1594840101170846769,22.0,-61.0,959.0,-0.1875,-0.0625,0.0625,24.75,11.25,-72.0625,0.999258301630135,-0.03259247086919693,-0.020507622119944134,0.00012206917928538175,101677.25,131072,0,
1594840101194908965,21.0,-63.0,958.0,0.0,0.25,0.0,24.375,10.875,-72.75,0.999258301630135,-0.03259247086919693,-0.020507622119944134,0.00012206917928538175,101674.75,131072,0,
1594840101219224699,22.0,-65.0,963.0,-0.0625,0.0,0.0,24.375,10.875,-72.75,0.999258301630135,-0.03259247086919693,-0.020507622119944134,0.00012206917928538175,101674.75,131072,0,
1594840101242843060,25.0,-62.0,961.0,0.25,-0.1875,0.0625,25.0625,11.6875,-72.375,0.999258301630135,-0.03259247086919693,-0.020507622119944134,0.00012206917928538175,101674.75,131072,0,
1594840101265484736,23.0,-64.0,959.0,-0.1875,0.125,0.0625,25.0625,11.6875,-72.375,0.999258301630135,-0.03259247086919693,-0.020507622119944134,0.00012206917928538175,101674.75,131072,0,
1594840101288721785,22.0,-67.0,964.0,-0.25,0.1875,0.0625,25.0625,11.25,-72.0,0.999258301630135,-0.03259247086919693,-0.020507622119944134,0.00012206917928538175,101674.75,131072,0,
1594840101312490111,23.0,-62.0,962.0,0.0625,-0.0625,0.125,25.0625,11.25,-72.0,0.999258301630135,-0.03259247086919693,-0.020507622119944134,0.00012206917928538175,101674.75,131072,0,
1594840101342876368,24.0,-62.0,963.0,0.0,-0.0625,0.0,25.0625,11.25,-72.0,0.999258301630135,-0.03259247086919693,-0.020507622119944134,0.00012206917928538175,101674.75,131072,0,
1594840101369429747,24.0,-61.0,962.0,0.0625,0.0625,0.0,24.75,10.1875,-72.375,0.999258301630135,-0.03259247086919693,-0.020507622119944134,0.00012206917928538175,101674.75,131072,0,
1594840101402538072,25.0,-64.0,960.0,-0.0625,-0.25,0.0,24.75,10.1875,-72.375,0.999258301630135,-0.03259247086919693,-0.020507622119944134,0.00012206917928538175,101674.75,131072,0,
1594840101436933493,21.0,-62.0,959.0,0.0,0.0,0.0,25.0625,10.5625,-72.0,0.999258301630135,-0.03259247086919693,-0.020507622119944134,0.00012206917928538175,101674.75,131072,0,
1594840101469767472,24.0,-64.0,963.0,0.125,0.0,-0.0625,25.375,9.75,-72.0,0.999258301630135,-0.03259247086919693,-0.020507622119944134,0.00012206917928538175,101674.75,131072,0,
1594840101500897884,23.0,-61.0,960.0,-0.0625,-0.125,0.0,25.375,9.75,-72.0,0.999258301630135,-0.03259247086919693,-0.020507622119944134,0.00012206917928538175,101674.75,131072,0,
1594840101534337788,23.0,-62.0,960.0,0.3125,0.0,0.0,24.375,10.5625,-73.1875,0.999258301630135,-0.03259247086919693,-0.020507622119944134,0.00012206917928538175,101674.75,131072,0,
1594840101565891191,23.0,-63.0,964.0,-0.125,0.125,-0.0625,24.75,10.5625,-72.375,0.999258301630135,-0.03259247086919693,-0.020507622119944134,0.00012206917928538175,101680.25,131072,0,
1594840101604479402,23.0,-63.0,962.0,0.0,0.0625,-0.125,24.75,10.5625,-72.375,0.999258301630135,-0.03259247086919693,-0.020507622119944134,0.00012206917928538175,101680.25,131072,0,
1594840101651679053,24.0,-64.0,958.0,-0.0625,0.1875,-0.0625,25.75,11.25,-72.375,0.999258301630135,-0.03259247086919693,-0.020507622119944134,0.00012206917928538175,101680.25,131072,0,
1594840101681794127,22.0,-66.0,960.0,-0.1875,0.0,-0.0625,25.0625,11.25,-71.1875,0.999258301630135,-0.03259247086919693,-0.020507622119944134,0.00012206917928538175,101680.25,131072,0,
1594840101704795274,23.0,-62.0,963.0,0.0,0.0,-0.125,25.0625,11.25,-71.1875,0.999258301630135,-0.03259247086919693,-0.020507622119944134,0.00012206917928538175,101680.25,131072,0,
1594840101729599430,23.0,-63.0,960.0,0.0625,-0.25,0.0,24.375,10.875,-72.375,0.999258301630135,-0.03259247086919693,-0.020507622119944134,0.00012206917928538175,101680.25,131072,0,
1594840101754968845,23.0,-64.0,960.0,-0.125,-0.25,-0.0625,24.375,10.875,-72.375,0.999258301630135,-0.03259247086919693,-0.020507622119944134,0.00012206917928538175,101680.25,131072,0,
1594840101779143416,23.0,-62.0,962.0,0.0625,0.0625,0.0625,25.375,10.875,-71.5625,0.999258301630135,-0.03259247086919693,-0.020507622119944134,0.00012206917928538175,101680.25,131072,0,
1594840101803528611,23.0,-62.0,961.0,0.0,0.0625,-0.0625,25.375,10.875,-71.5625,0.999258301630135,-0.03259247086919693,-0.020507622119944134,0.00012206917928538175,101680.25,131072,0,
1594840101833761761,23.0,-62.0,962.0,-0.125,0.0625,0.0,24.75,11.25,-71.5625,0.999258301630135,-0.03259247086919693,-0.020507622119944134,0.00012206917928538175,101680.25,131072,0,
1594840101865966064,22.0,-64.0,961.0,-0.125,0.125,0.0,24.75,11.25,-71.5625,0.999258301630135,-0.03259247086919693,-0.020507622119944134,0.00012206917928538175,101680.25,131072,0,
1594840101896051877,22.0,-63.0,962.0,-0.0625,-0.0625,-0.0625,25.0625,10.5625,-72.375,0.999258301630135,-0.03259247086919693,-0.020507622119944134,0.00012206917928538175,101680.25,131072,0,
1594840101933854478,24.0,-63.0,958.0,-0.1875,-0.0625,0.125,25.0625,11.25,-71.5625,0.999258301630135,-0.03259247086919693,-0.020507622119944134,0.00012206917928538175,101680.25,131072,0,
1594840101966541616,23.0,-63.0,961.0,-0.125,0.25,-0.0625,25.0625,11.25,-71.5625,0.999258301630135,-0.03259247086919693,-0.020507622119944134,0.00012206917928538175,101678.0,131072,0,
1594840102000299389,25.0,-63.0,963.0,-0.125,-0.1875,0.0625,24.75,10.5625,-72.0,0.999258301630135,-0.03259247086919693,-0.020507622119944134,0.00012206917928538175,101678.0,131072,0,
1594840102034175712,23.0,-63.0,961.0,-0.125,-0.0625,0.0625,24.0,11.6875,-72.375,0.999258301630135,-0.03259247086919693,-0.020507622119944134,0.00012206917928538175,101678.0,131072,0,
1594840102066937342,23.0,-65.0,960.0,0.0625,0.125,0.0,24.0,11.6875,-72.375,0.999258301630135,-0.03259247086919693,-0.020507622119944134,0.00012206917928538175,101678.0,131072,0,
1594840102101346234,22.0,-63.0,960.0,0.125,-0.0625,0.0,25.375,11.6875,-72.75,0.999258301630135,-0.03259247086919693,-0.020507622119944134,0.00012206917928538175,101678.0,131072,0,
1594840102133545899,22.0,-64.0,961.0,-0.125,-0.0625,0.0,25.75,11.25,-72.0,0.999258301630135,-0.03259247086919693,-0.020507622119944134,0.00012206917928538175,101678.0,131072,0,
1594840102167450048,22.0,-64.0,963.0,0.0,-0.1875,0.0,25.75,11.25,-72.0,0.999258301630135,-0.03259247086919693,-0.020507622119944134,0.00012206917928538175,101678.0,131072,0,
1594840102201378534,22.0,-63.0,959.0,-0.1875,-0.0625,0.0625,24.75,12.0,-71.5625,0.999258301630135,-0.03259247086919693,-0.020507622119944134,0.00012206917928538175,101678.0,131072,0,
1594840102237727096,23.0,-63.0,960.0,0.1875,-0.125,0.0,24.75,10.875,-71.5625,0.999258301630135,-0.03259247086919693,-0.020507622119944134,0.00012206917928538175,101678.0, , ,
1594840102263950546,22.0,-62.0,960.0,-0.3125,0.0625,0.0625,24.75,10.875,-71.5625,0.999258301630135,-0.03259247086919693,-0.020507622119944134,0.00012206917928538175,101678.0,131072,0,
1594840102288011661,24.0,-63.0,960.0,0.0625,-0.0625,0.0,24.75,11.25,-71.1875,0.999258301630135,-0.03259247086919693,-0.020507622119944134,0.00012206917928538175,101678.0,131072,0,
1594840102311820164,24.0,-63.0,958.0,-0.125,0.0625,0.0,24.75,11.25,-71.1875,0.999258301630135,-0.03259247086919693,-0.020507622119944134,0.00012206917928538175,101678.0,131072,0,
1594840102336009392,22.0,-63.0,960.0,-0.125,-0.0625,0.0,24.75,10.5625,-71.1875,0.999258301630135,-0.03259247086919693,-0.020507622119944134,0.00012206917928538175,101680.0,131072,0,
1594840102361041872,23.0,-61.0,961.0,0.3125,-0.0625,0.0625,24.75,10.5625,-71.1875,0.999258301630135,-0.03259247086919693,-0.020507622119944134,0.00012206917928538175,101680.0,131072,0,
1594840102391774697,22.0,-63.0,962.0,-0.1875,0.0625,0.0625,24.75,11.6875,-71.5625,0.999258301630135,-0.03259247086919693,-0.020507622119944134,0.00012206917928538175,101680.0,131072,0,
1594840102415795649,23.0,-63.0,957.0,-0.125,0.0,0.0,24.75,11.6875,-71.5625,0.999258301630135,-0.03259247086919693,-0.020507622119944134,0.00012206917928538175,101680.0,131072,0,
1594840102441185794,23.0,-64.0,961.0,0.0,0.1875,0.0,24.375,10.1875,-71.5625,0.999258301630135,-0.03259247086919693,-0.020507622119944134,0.00012206917928538175,101680.0,131072,0,
1594840102465193208,23.0,-63.0,960.0,0.125,0.1875,0.0,24.375,10.1875,-71.5625,0.999258301630135,-0.03259247086919693,-0.020507622119944134,0.00012206917928538175,101680.0,131072,0,
1594840102490034669,23.0,-63.0,961.0,-0.375,-0.0625,0.0,24.375,10.5625,-72.375,0.999258301630135,-0.03259247086919693,-0.020507622119944134,0.00012206917928538175,101680.0,131072,0,
1594840102514789429,21.0,-62.0,960.0,0.0,-0.125,0.0625,24.375,10.5625,-72.375,0.999258301630135,-0.03259247086919693,-0.020507622119944134,0.00012206917928538175,101680.0,131072,0,
1594840102539392142,22.0,-63.0,961.0,0.0625,-0.0625,0.0625,24.75,10.875,-71.25,0.999258301630135,-0.03259247086919693,-0.020507622119944134,0.00012206917928538175,101680.0,131072,0,
1594840102563815844,26.0,-64.0,956.0,0.0,-0.1875,0.125,24.75,10.875,-71.25,0.999258301630135,-0.03259247086919693,-0.020507622119944134,0.00012206917928538175,101680.0,131072,0,
1594840102586850039,23.0,-63.0,963.0,0.0625,-0.125,-0.125,24.75,11.6875,-71.5625,0.999258301630135,-0.03259247086919693,-0.020507622119944134,0.00012206917928538175,101680.0,131072,0,
1594840102611006569,26.0,-62.0,959.0,0.25,0.125,0.0625,24.75,11.6875,-71.5625,0.999258301630135,-0.03259247086919693,-0.020507622119944134,0.00012206917928538175,101680.0,131072,0,
1594840102633724736,24.0,-64.0,963.0,0.0,-0.0625,-0.0625,24.75,11.6875,-72.375,0.999258301630135,-0.03259247086919693,-0.020507622119944134,0.00012206917928538175,101680.0,131072,0,
1594840102658061216,22.0,-63.0,956.0,-0.125,0.1875,-0.125,24.75,11.6875,-72.375,0.999258301630135,-0.03259247086919693,-0.020507622119944134,0.00012206917928538175,101680.0,131072,0,
1594840102682564549,25.0,-63.0,961.0,-0.0625,-0.125,0.0,25.5,10.5625,-72.375,0.999258301630135,-0.03259247086919693,-0.020507622119944134,0.00012206917928538175,101680.0,131072,0,
1594840102705897724,23.0,-63.0,959.0,-0.125,0.0,0.0,25.5,10.5625,-72.75,0.999258301630135,-0.03259247086919693,-0.020507622119944134,0.00012206917928538175,101683.25,131072,0,
1594840102731165528,22.0,-63.0,961.0,-0.125,0.125,-0.0625,25.5,11.25,-71.5625,0.999258301630135,-0.03259247086919693,-0.020507622119944134,0.00012206917928538175,101683.25,131072,0,
1594840102755887013,23.0,-62.0,960.0,-0.0625,0.0625,-0.125,25.5,11.25,-71.5625,0.999258301630135,-0.03259247086919693,-0.020507622119944134,0.00012206917928538175,101683.25,131072,0,
1594840102778731059,23.0,-65.0,961.0,0.0,0.125,-0.0625,25.5,11.25,-71.5625,0.999258301630135,-0.03259247086919693,-0.020507622119944134,0.00012206917928538175,101683.25,131072,0,
1594840102801132524,23.0,-62.0,965.0,0.0625,-0.125,0.0625,24.75,11.25,-72.375,0.999258301630135,-0.03259247086919693,-0.020507622119944134,0.00012206917928538175,101683.25,131072,0,
1594840102824249578,24.0,-63.0,961.0,0.0,0.0625,-0.0625,24.75,11.25,-72.375,0.999258301630135,-0.03259247086919693,-0.020507622119944134,0.00012206917928538175,101683.25,131072,0,
1594840102847072311,23.0,-62.0,961.0,-0.1875,-0.1875,0.0,24.375,10.875,-72.375,0.999258301630135,-0.03259247086919693,-0.020507622119944134,0.00012206917928538175,101683.25,131072,0,
1594840102869936549,23.0,-62.0,960.0,0.0,-0.0625,0.0,24.375,10.875,-72.375,0.999258301630135,-0.03259247086919693,-0.020507622119944134,0.00012206917928538175,101683.25,131072,0,
1594840102894397710,25.0,-62.0,961.0,-0.0625,0.0,0.0,24.75,10.875,-72.0625,0.999258301630135,-0.03259247086919693,-0.020507622119944134,0.00012206917928538175,101683.25,131072,0,
1594840102919793509,24.0,-64.0,959.0,-0.1875,-0.125,0.0625,24.75,10.875,-72.0625,0.999258301630135,-0.03259247086919693,-0.020507622119944134,0.00012206917928538175,101683.25,131072,0,
1594840102944725733,22.0,-62.0,962.0,0.0625,-0.375,0.0,24.75,10.875,-72.375,0.999258301630135,-0.03259247086919693,-0.020507622119944134,0.00012206917928538175,101683.25,131072,0,
1594840102969958488,23.0,-64.0,963.0,0.0,-0.125,0.0625,24.75,10.875,-72.375,0.999258301630135,-0.03259247086919693,-0.020507622119944134,0.00012206917928538175,101683.25,131072,0,
1594840102993549541,22.0,-61.0,961.0,0.0625,-0.0625,0.0625,24.75,10.1875,-72.0,0.999258301630135,-0.03259247086919693,-0.020507622119944134,0.00012206917928538175,101683.25,131072,0,
1594840103018530004,23.0,-62.0,960.0,0.0625,-0.125,0.0625,24.75,10.1875,-72.0,0.999258301630135,-0.03259247086919693,-0.020507622119944134,0.00012206917928538175,101683.25,131072,0,
1594840103043143425,24.0,-66.0,963.0,0.0,-0.0625,0.125,24.75,10.5625,-72.375,0.999258301630135,-0.03259247086919693,-0.020507622119944134,0.00012206917928538175,101683.25,131072,0,
1594840103066919316,23.0,-64.0,960.0,0.0,0.0625,-0.0625,24.75,10.5625,-72.375,0.999258301630135,-0.03259247086919693,-0.020507622119944134,0.00012206917928538175,101683.25,131072,0,
1594840103094791999,23.0,-63.0,961.0,0.0,-0.0625,0.0,25.0625,11.6875,-72.375,0.999258301630135,-0.03259247086919693,-0.020507622119944134,0.00012206917928538175,101676.5, , ,
1594840103117938676,23.0,-62.0,961.0,0.125,-0.125,0.0,25.0625,11.6875,-72.375,0.999258301630135,-0.03259247086919693,-0.020507622119944134,0.00012206917928538175,101676.5,131072,0,
1594840103141819991,23.0,-64.0,960.0,-0.0625,-0.0625,0.0,24.75,11.25,-71.5625,0.999258301630135,-0.03259247086919693,-0.020507622119944134,0.00012206917928538175,101676.5,131072,0,
1594840103165214128,23.0,-62.0,961.0,0.1875,-0.0625,0.0625,24.75,11.25,-71.5625,0.999258301630135,-0.03259247086919693,-0.020507622119944134,0.00012206917928538175,101676.5,131072,0,
1594840103190836928,22.0,-61.0,964.0,0.0625,0.3125,0.0,25.0625,11.6875,-71.5625,0.999258301630135,-0.03259247086919693,-0.020507622119944134,0.00012206917928538175,101676.5,131072,0,
1594840103215961324,23.0,-67.0,965.0,0.0625,-0.0625,-0.0625,25.0625,11.6875,-71.5625,0.999258301630135,-0.03259247086919693,-0.020507622119944134,0.00012206917928538175,101676.5,131072,0,
1594840103242042786,22.0,-63.0,959.0,0.3125,-0.0625,0.0625,25.5,10.5625,-71.6875,0.999258301630135,-0.03259247086919693,-0.020507622119944134,0.00012206917928538175,101676.5,131072,0,
1594840103267671412,23.0,-63.0,962.0,-0.125,-0.0625,0.0625,25.5,10.5625,-71.6875,0.999258301630135,-0.03259247086919693,-0.020507622119944134,0.00012206917928538175,101676.5,131072,0,
1594840103291416190,23.0,-65.0,962.0,-0.125,0.0625,0.0,24.75,10.875,-71.5625,0.999258301630135,-0.03259247086919693,-0.020507622119944134,0.00012206917928538175,101676.5,131072,0,
1594840103315692787,22.0,-61.0,960.0,0.0,0.0,-0.0625,24.75,10.875,-71.5625,0.999258301630135,-0.03259247086919693,-0.020507622119944134,0.00012206917928538175,101676.5,131072,0,
1594840103340928705,23.0,-63.0,960.0,0.125,0.0,0.0,24.75,10.5625,-72.0,0.999258301630135,-0.03259247086919693,-0.020507622119944134,0.00012206917928538175,101676.5,131072,0,
1594840103364974342,24.0,-64.0,959.0,0.0,0.0625,0.0,24.75,10.5625,-72.0,0.999258301630135,-0.03259247086919693,-0.020507622119944134,0.00012206917928538175,101676.5,131072,0,
1594840103390027859,22.0,-62.0,966.0,0.0,0.0625,0.125,24.75,11.6875,-72.375,0.999258301630135,-0.03259247086919693,-0.020507622119944134,0.00012206917928538175,101676.5,131072,0,
1594840103421041593,23.0,-61.0,962.0,0.0,-0.125,0.0,24.75,11.6875,-72.375,0.999258301630135,-0.03259247086919693,-0.020507622119944134,0.00012206917928538175,101676.5,131072,0,
1594840103453080753,24.0,-64.0,959.0,0.0,-0.25,-0.0625,25.5,11.25,-72.375,0.999258301630135,-0.03259247086919693,-0.020507622119944134,0.00012206917928538175,101676.5,131072,0,
1594840103494000188,22.0,-62.0,963.0,0.1875,-0.4375,0.0625,25.0625,12.0,-72.0625,0.999258301630135,-0.03259247086919693,-0.020507622119944134,0.00012206917928538175,101680.25,131072,0,
1594840103528285325,27.0,-61.0,960.0,-0.3125,-0.25,0.0,25.0625,12.0,-72.0625,0.999258301630135,-0.03259247086919693,-0.020507622119944134,0.00012206917928538175,101680.25,131072,0,
1594840103568286447,24.0,-59.0,960.0,0.0,0.0,0.0625,24.75,10.5625,-71.6875,0.999258301630135,-0.03259247086919693,-0.020507622119944134,0.00012206917928538175,101680.25,131072,0,
1594840103602215190,23.0,-61.0,963.0,-0.0625,-0.125,0.0,25.75,11.6875,-70.0625,0.999258301630135,-0.03259247086919693,-0.020507622119944134,0.00012206917928538175,101680.25,131072,0,
1594840103636897170,24.0,-60.0,961.0,-0.25,0.0,0.125,25.75,11.6875,-70.0625,0.999258301630135,-0.03259247086919693,-0.020507622119944134,0.00012206917928538175,101680.25,131072,0,
1594840103669943105,22.0,-63.0,961.0,0.125,-0.1875,-0.0625,24.75,10.875,-72.0625,0.999258301630135,-0.03259247086919693,-0.020507622119944134,0.00012206917928538175,101680.25,131072,0,
1594840103702495523,24.0,-63.0,964.0,-0.0625,-0.125,0.1875,24.75,10.1875,-72.375,0.999258301630135,-0.03259247086919693,-0.020507622119944134,0.00012206917928538175,101680.25,131072,0,
1594840103735427291,25.0,-63.0,963.0,-0.125,0.0,0.0625,24.75,10.1875,-72.375,0.999258301630135,-0.03259247086919693,-0.020507622119944134,0.00012206917928538175,101680.25,131072,0,
1594840103767071245,23.0,-62.0,960.0,-0.0625,-0.25,0.0,24.0,10.875,-71.5625,0.999258301630135,-0.03259247086919693,-0.020507622119944134,0.00012206917928538175,101680.25,131072,0,
1594840103792422076,23.0,-60.0,962.0,-0.125,-0.1875,0.0625,24.75,11.25,-71.5625,0.999258301630135,-0.03259247086919693,-0.020507622119944134,0.00012206917928538175,101680.25,131072,0,
1594840103820935214,23.0,-62.0,958.0,-0.0625,-0.125,-0.125,24.75,11.25,-71.5625,0.999258301630135,-0.03259247086919693,-0.020507622119944134,0.00012206917928538175,101680.25,131072,0,
1594840103846737556,22.0,-65.0,963.0,0.0,0.0,0.125,24.375,11.6875,-72.375,0.999258301630135,-0.03259247086919693,-0.020507622119944134,0.00012206917928538175,101680.0,131072,0,
1594840103871420997,22.0,-63.0,961.0,-0.125,0.0625,0.0625,24.375,11.6875,-72.375,0.999258301630135,-0.03259247086919693,-0.020507622119944134,0.00012206917928538175,101680.0,131072,0,
1594840103896166330,24.0,-63.0,961.0,-0.0625,-0.125,0.0,24.0,10.5625,-72.375,0.999258301630135,-0.03259247086919693,-0.020507622119944134,0.00012206917928538175,101680.0,131072,0,
1594840103921231149,24.0,-64.0,960.0,-0.25,-0.0625,-0.0625,24.0,10.5625,-72.375,0.999258301630135,-0.03259247086919693,-0.020507622119944134,0.00012206917928538175,101680.0,131072,0,
1594840103946035576,21.0,-63.0,960.0,-0.125,0.0,0.0,25.0625,11.25,-71.5625,0.999258301630135,-0.03259247086919693,-0.020507622119944134,0.00012206917928538175,101680.0,131072,0,
1594840103969836914,22.0,-64.0,961.0,0.125,-0.125,0.0625,25.0625,11.25,-71.5625,0.999258301630135,-0.03259247086919693,-0.020507622119944134,0.00012206917928538175,101680.0,131072,0,
1594840103998905800,22.0,-62.0,964.0,0.125,-0.0625,0.0625,25.5,10.5625,-72.875,0.999258301630135,-0.03259247086919693,-0.020507622119944134,0.00012206917928538175,101680.0,131072,0,
1594840104023531405,22.0,-64.0,959.0,-0.125,-0.0625,0.0,25.5,10.5625,-72.875,0.999258301630135,-0.03259247086919693,-0.020507622119944134,0.00012206917928538175,101680.0,131072,0,
1594840104048018560,24.0,-62.0,961.0,-0.0625,-0.25,0.0,25.75,10.1875,-72.375,0.999258301630135,-0.03259247086919693,-0.020507622119944134,0.00012206917928538175,101680.0,131072,0,
1594840104070742814,25.0,-67.0,958.0,0.1875,0.125,0.0,25.75,10.1875,-72.375,0.999258301630135,-0.03259247086919693,-0.020507622119944134,0.00012206917928538175,101680.0,131072,0,
1594840104095041634,24.0,-64.0,962.0,-0.0625,-0.3125,0.0,25.0625,10.875,-72.75,0.999258301630135,-0.03259247086919693,-0.020507622119944134,0.00012206917928538175,101680.0,131072,0,
1594840104119917617,24.0,-63.0,961.0,0.0625,-0.125,0.0625,25.0625,10.875,-72.75,0.999258301630135,-0.03259247086919693,-0.020507622119944134,0.00012206917928538175,101680.0,131072,0,
1594840104144670539,24.0,-61.0,961.0,0.1875,-0.125,0.0625,24.75,10.875,-73.25,0.999258301630135,-0.03259247086919693,-0.020507622119944134,0.00012206917928538175,101680.0,131072,0,
1594840104168507541,21.0,-65.0,961.0,-0.1875,0.0,0.0,24.75,10.875,-73.25,0.999258301630135,-0.03259247086919693,-0.020507622119944134,0.00012206917928538175,101680.0,131072,0,
1594840104192101106,25.0,-63.0,961.0,-0.125,-0.25,0.0,24.75,10.875,-72.75,0.999258301630135,-0.03259247086919693,-0.020507622119944134,0.00012206917928538175,101680.0,131072,0,
1594840104217532023,23.0,-62.0,962.0,0.0,0.0,0.0,24.75,10.875,-72.75,0.999258301630135,-0.03259247086919693,-0.020507622119944134,0.00012206917928538175,101680.0,131072,0,
1594840104249218694,21.0,-64.0,964.0,0.0,-0.3125,0.0625,24.75,11.25,-73.25,0.999258301630135,-0.03259247086919693,-0.020507622119944134,0.00012206917928538175,101683.5,131072,0,
1594840104272398046,22.0,-63.0,956.0,-0.0625,0.0,0.0625,24.75,11.25,-73.25,0.999258301630135,-0.03259247086919693,-0.020507622119944134,0.00012206917928538175,101683.5,131072,0,
1594840104296894433,25.0,-62.0,963.0,0.0625,0.0,0.0625,24.375,10.1875,-73.5625,0.999258301630135,-0.03259247086919693,-0.020507622119944134,0.00012206917928538175,101683.5,131072,0,
1594840104328809860,22.0,-64.0,961.0,0.125,-0.3125,0.125,24.375,10.1875,-73.5625,0.999258301630135,-0.03259247086919693,-0.020507622119944134,0.00012206917928538175,101683.5,131072,0,
1594840104362395255,23.0,-62.0,961.0,0.125,-0.125,0.0,24.0,10.875,-71.6875,0.999258301630135,-0.03259247086919693,-0.020507622119944134,0.00012206917928538175,101683.5,131072,0,
1594840104394408577,22.0,-64.0,961.0,-0.0625,-0.125,0.0,25.5,10.875,-73.25,0.999258301630135,-0.03259247086919693,-0.020507622119944134,0.00012206917928538175,101683.5,131072,0,
1594840104428909486,22.0,-61.0,961.0,0.0,-0.0625,0.0,25.5,10.875,-73.25,0.999258301630135,-0.03259247086919693,-0.020507622119944134,0.00012206917928538175,101683.5,131072,0,
1594840104463406544,23.0,-64.0,959.0,0.0625,0.0625,0.0625,25.5,10.5625,-72.375,0.999258301630135,-0.03259247086919693,-0.020507622119944134,0.00012206917928538175,101683.5,131072,0,
1594840104497291508,24.0,-65.0,961.0,-0.1875,0.375,-0.0625,24.75,10.5625,-71.5625,0.999258301630135,-0.03259247086919693,-0.020507622119944134,0.00012206917928538175,101683.5,131072,0,
1594840104531591636,20.0,-63.0,961.0,-0.125,0.0,0.0,24.75,10.5625,-71.5625,0.999258301630135,-0.03259247086919693,-0.020507622119944134,0.00012206917928538175,101683.5,131072,0,
1594840104563459842,22.0,-64.0,959.0,-0.1875,0.0,-0.1875,24.375,10.875,-73.25,0.999258301630135,-0.03259247086919693,-0.020507622119944134,0.00012206917928538175,101683.5,131072,0,
1594840104595115487,20.0,-65.0,961.0,-0.0625,0.0625,0.0,25.0625,10.875,-72.375,0.999258301630135,-0.03259247086919693,-0.020507622119944134,0.00012206917928538175,101683.5,131072,0,
1594840104628264749,22.0,-63.0,960.0,-0.125,-0.25,-0.0625,25.0625,10.875,-72.375,0.999258301630135,-0.03259247086919693,-0.020507622119944134,0.00012206917928538175,101683.5,131072,0,
1594840104663366983,23.0,-62.0,961.0,0.125,0.0,0.0,24.375,11.25,-73.25,0.999258301630135,-0.03259247086919693,-0.020507622119944134,0.00012206917928538175,101683.5,131072,0,
1594840104697402259,22.0,-61.0,963.0,0.0625,0.0,-0.0625,25.0625,11.25,-72.0625,0.999258301630135,-0.03259247086919693,-0.020507622119944134,0.00012206917928538175,101683.5,131072,0,
1594840104731251129,24.0,-65.0,956.0,-0.1875,-0.125,-0.0625,24.75,11.25,-73.5625,0.999258301630135,-0.03259247086919693,-0.020507622119944134,0.00012206917928538175,101683.5,131072,0,
1594840104773974225,25.0,-66.0,961.0,0.125,-0.0625,0.0,24.75,11.25,-73.5625,0.999258301630135,-0.03259247086919693,-0.020507622119944134,0.00012206917928538175,101683.5,131072,0,
1594840104810886088,23.0,-62.0,960.0,-0.125,-0.25,0.0,24.75,10.875,-72.75,0.999258301630135,-0.03259247086919693,-0.020507622119944134,0.00012206917928538175,101683.5,131072,0,
1594840104843085256,23.0,-61.0,961.0,-0.125,-0.0625,-0.0625,24.375,10.875,-71.6875,0.999258301630135,-0.03259247086919693,-0.020507622119944134,0.00012206917928538175,101683.5,131072,0,
1594840104874262495,22.0,-65.0,961.0,0.0625,0.1875,-0.0625,24.375,10.875,-71.6875,0.999258301630135,-0.03259247086919693,-0.020507622119944134,0.00012206917928538175,101683.5,131072,0,
1594840104908885638,23.0,-64.0,959.0,-0.1875,0.125,-0.0625,25.0625,10.5625,-70.375,0.999258301630135,-0.03259247086919693,-0.020507622119944134,0.00012206917928538175,101683.5,131072,0,
1594840104941510383,22.0,-65.0,960.0,-0.1875,-0.0625,0.0,25.0625,10.5625,-70.375,0.999258301630135,-0.03259247086919693,-0.020507622119944134,0.00012206917928538175,101683.5,131072,0,
1594840104969597524,25.0,-61.0,963.0,0.1875,-0.125,0.1875,24.75,10.875,-72.0625,0.999258301630135,-0.03259247086919693,-0.020507622119944134,0.00012206917928538175,101683.5,131072,0,
1594840104991943837,25.0,-64.0,960.0,0.0625,0.0,0.125,24.75,10.875,-72.0625,0.999258301630135,-0.03259247086919693,-0.020507622119944134,0.00012206917928538175,101682.5,131072,0,
1594840105015293534,22.0,-66.0,962.0,0.1875,0.0625,0.0,25.0625,10.5625,-70.875,0.999258301630135,-0.03259247086919693,-0.020507622119944134,0.00012206917928538175,101682.5,131072,0,
1594840105045272319,24.0,-61.0,961.0,-0.125,0.125,-0.125,25.0625,10.5625,-70.875,0.999258301630135,-0.03259247086919693,-0.020507622119944134,0.00012206917928538175,101682.5,131072,0,
1594840105069945154,24.0,-63.0,962.0,0.0,0.1875,0.0625,24.75,10.875,-70.875,0.999258301630135,-0.03259247086919693,-0.020507622119944134,0.00012206917928538175,101682.5,131072,0,
1594840105095074404,24.0,-63.0,962.0,0.0,-0.125,0.0,24.75,10.875,-70.875,0.999258301630135,-0.03259247086919693,-0.020507622119944134,0.00012206917928538175,101682.5,131072,0,
1594840105119052379,24.0,-65.0,961.0,0.0625,0.0,0.0625,24.375,11.25,-72.375,0.999258301630135,-0.03259247086919693,-0.020507622119944134,0.00012206917928538175,101682.5,131072,0,
1594840105142987887,25.0,-61.0,962.0,-0.1875,0.125,0.125,24.375,11.25,-72.375,0.999258301630135,-0.03259247086919693,-0.020507622119944134,0.00012206917928538175,101682.5,131072,0,
1594840105167142702,23.0,-64.0,962.0,-0.25,0.0,0.0,25.5,10.1875,-71.5625,0.999258301630135,-0.03259247086919693,-0.020507622119944134,0.00012206917928538175,101682.5,131072,0,
1594840105191225653,23.0,-63.0,963.0,-0.1875,-0.125,0.0,25.5,10.1875,-71.5625,0.999258301630135,-0.03259247086919693,-0.020507622119944134,0.00012206917928538175,101682.5,131072,0,
1594840105215927044,23.0,-61.0,961.0,0.0625,-0.1875,0.0625,25.5,10.5625,-73.25,0.999258301630135,-0.03259247086919693,-0.020507622119944134,0.00012206917928538175,101682.5,131072,0,
1594840105240622738,25.0,-63.0,961.0,0.0,-0.0625,0.0,25.5,10.5625,-73.25,0.999258301630135,-0.03259247086919693,-0.020507622119944134,0.00012206917928538175,101682.5,131072,0,
1594840105265299109,25.0,-63.0,964.0,-0.25,0.0625,15.875,24.75,11.25,-71.5625,0.999258301630135,-0.03259247086919693,-0.020507622119944134,0.00012206917928538175,101682.5,131072,0,
1594840105289345902,22.0,-61.0,961.0,0.0625,0.0,-0.0625,24.75,11.25,-71.5625,0.999258301630135,-0.03259247086919693,-0.020507622119944134,0.00012206917928538175,101682.5,131072,0,
1594840105312116378,23.0,-65.0,961.0,-0.25,-0.0625,0.0,24.375,10.5625,-72.5,0.999258301630135,-0.03259247086919693,-0.020507622119944134,0.00012206917928538175,101682.5,131072,0,
1594840105335731993,24.0,-64.0,960.0,-0.1875,0.0625,0.0,24.375,10.5625,-72.5,0.999258301630135,-0.03259247086919693,-0.020507622119944134,0.00012206917928538175,101682.5,131072,0,
1594840105359680288,23.0,-63.0,962.0,0.0,0.25,0.0625,25.0625,10.875,-71.6875,0.999258301630135,-0.03259247086919693,-0.020507622119944134,0.00012206917928538175,101682.5,131072,0,
1594840105388683503,22.0,-64.0,961.0,-0.125,0.125,0.0625,25.0625,10.875,-71.6875,0.999258301630135,-0.03259247086919693,-0.020507622119944134,0.00012206917928538175,101681.25,131072,0,
1594840105412170835,23.0,-62.0,961.0,0.25,0.0625,0.0,24.375,11.6875,-72.0625,0.999258301630135,-0.03259247086919693,-0.020507622119944134,0.00012206917928538175,101681.25,131072,0,
1594840105435672865,22.0,-63.0,962.0,0.0,0.3125,0.0625,24.375,11.6875,-72.0625,0.999258301630135,-0.03259247086919693,-0.020507622119944134,0.00012206917928538175,101681.25,131072,0,
1594840105459071788,22.0,-64.0,958.0,0.0625,-0.125,0.0,24.75,11.25,-70.875,0.999258301630135,-0.03259247086919693,-0.020507622119944134,0.00012206917928538175,101681.25,131072,0,
1594840105487402810,23.0,-64.0,961.0,0.125,0.25,0.0625,24.75,11.25,-70.875,0.999258301630135,-0.03259247086919693,-0.020507622119944134,0.00012206917928538175,101681.25,131072,0,
1594840105512781453,22.0,-62.0,961.0,-0.0625,-0.1875,-0.0625,24.75,10.875,-72.5,0.999258301630135,-0.03259247086919693,-0.020507622119944134,0.00012206917928538175,101681.25,131072,0,
1594840105538018824,22.0,-63.0,963.0,0.0625,-0.0625,0.0,24.75,10.875,-72.5,0.999258301630135,-0.03259247086919693,-0.020507622119944134,0.00012206917928538175,101681.25,131072,0,
1594840105563016810,24.0,-63.0,959.0,0.0,0.1875,0.0,24.75,10.5625,-72.875,0.999258301630135,-0.03259247086919693,-0.020507622119944134,0.00012206917928538175,101681.25,131072,0,
1594840105587522303,23.0,-62.0,960.0,-0.1875,-0.125,0.0,24.75,10.5625,-72.875,0.999258301630135,-0.03259247086919693,-0.020507622119944134,0.00012206917928538175,101681.25,131072,0,
1594840105611716838,22.0,-63.0,962.0,-0.125,0.25,0.0,26.1875,11.6875,-73.25,0.999258301630135,-0.03259247086919693,-0.020507622119944134,0.00012206917928538175,101681.25,131072,0,
1594840105636505539,24.0,-61.0,961.0,-0.0625,0.0,0.125,26.1875,11.6875,-73.25,0.999258301630135,-0.03259247086919693,-0.020507622119944134,0.00012206917928538175,101681.25,131072,0,
1594840105665776625,23.0,-63.0,958.0,0.125,0.125,0.0,25.0625,11.25,-71.6875,0.999258301630135,-0.03259247086919693,-0.020507622119944134,0.00012206917928538175,101681.25,131072,0,
1594840105689721726,22.0,-64.0,958.0,0.0625,-0.125,0.0625,25.0625,11.25,-71.6875,0.999258301630135,-0.03259247086919693,-0.020507622119944134,0.00012206917928538175,101681.25,131072,0,
1594840105713236881,25.0,-63.0,962.0,0.1875,0.0,0.0625,25.5,10.5625,-72.375,0.999258301630135,-0.03259247086919693,-0.020507622119944134,0.00012206917928538175,101681.25,131072,0,
1594840105736990502,22.0,-63.0,961.0,0.25,-0.0625,0.0625,25.5,10.5625,-72.375,0.999258301630135,-0.03259247086919693,-0.020507622119944134,0.00012206917928538175,101681.25,131072,0,
1594840105760741815,22.0,-63.0,959.0,0.0,0.0625,0.0625,25.5,10.875,-71.6875,0.999258301630135,-0.03259247086919693,-0.020507622119944134,0.00012206917928538175,101681.5,131072,0,
1594840105784594698,22.0,-64.0,959.0,-0.125,0.125,0.0625,25.5,10.875,-71.6875,0.999258301630135,-0.03259247086919693,-0.020507622119944134,0.00012206917928538175,101681.5,131072,0,
1594840105808254591,23.0,-61.0,962.0,0.0,0.0625,0.0,24.75,10.5625,-72.0625,0.999258301630135,-0.03259247086919693,-0.020507622119944134,0.00012206917928538175,101681.5,131072,0,
1594840105831597622,25.0,-64.0,958.0,0.25,-0.0625,0.0625,24.75,10.5625,-72.0625,0.999258301630135,-0.03259247086919693,-0.020507622119944134,0.00012206917928538175,101681.5,131072,0,
1594840105854658883,23.0,-62.0,961.0,0.125,-0.1875,0.0,25.0625,10.1875,-71.25,0.999258301630135,-0.03259247086919693,-0.020507622119944134,0.00012206917928538175,101681.5,131072,0,
1594840105878338944,24.0,-62.0,960.0,-0.0625,-0.0625,0.0,25.0625,10.1875,-71.25,0.999258301630135,-0.03259247086919693,-0.020507622119944134,0.00012206917928538175,101681.5,131072,0,
1594840105901583528,24.0,-64.0,960.0,-0.0625,0.1875,0.0,24.75,10.875,-72.375,0.999258301630135,-0.03259247086919693,-0.020507622119944134,0.00012206917928538175,101681.5,131072,0,
1594840105924928207,23.0,-60.0,958.0,-0.25,0.0,0.0625,24.75,10.875,-72.375,0.999258301630135,-0.03259247086919693,-0.020507622119944134,0.00012206917928538175,101681.5,131072,0,
1594840105947953513,22.0,-63.0,963.0,0.0,0.3125,0.0625,24.0,10.875,-71.6875,0.999258301630135,-0.03259247086919693,-0.020507622119944134,0.00012206917928538175,101681.5,131072,0,
1594840105970922451,24.0,-64.0,961.0,-0.125,0.125,0.0,24.0,10.875,-71.6875,0.999258301630135,-0.03259247086919693,-0.020507622119944134,0.00012206917928538175,101681.5,131072,0,
1594840105994674161,23.0,-61.0,962.0,0.1875,0.0625,0.0,24.0,10.875,-71.6875,0.999258301630135,-0.03259247086919693,-0.020507622119944134,0.00012206917928538175,101681.5,131072,0,
1594840106018788140,25.0,-62.0,961.0,-0.125,0.125,0.0625,25.0625,11.25,-73.25,0.999258301630135,-0.03259247086919693,-0.020507622119944134,0.00012206917928538175,101681.5,131072,0,
1594840106041587854,22.0,-64.0,959.0,0.0,0.0,0.0625,25.0625,11.25,-73.25,0.999258301630135,-0.03259247086919693,-0.020507622119944134,0.00012206917928538175,101681.5,131072,0,
1594840106065075460,21.0,-62.0,961.0,-0.0625,-0.0625,-0.0625,24.75,11.25,-71.25,0.999258301630135,-0.03259247086919693,-0.020507622119944134,0.00012206917928538175,101681.5,131072,0,
1594840106089875550,22.0,-63.0,959.0,0.25,0.0625,0.0625,24.75,11.25,-71.25,0.999258301630135,-0.03259247086919693,-0.020507622119944134,0.00012206917928538175,101681.5,131072,0,
1594840106114600369,25.0,-64.0,958.0,-0.0625,0.0625,0.0625,24.75,10.875,-72.0625,0.999258301630135,-0.03259247086919693,-0.020507622119944134,0.00012206917928538175,101681.5,131072,0,
1594840106137944375,24.0,-62.0,961.0,0.3125,0.25,0.0625,24.75,10.875,-72.0625,0.999258301630135,-0.03259247086919693,-0.020507622119944134,0.00012206917928538175,101681.75,131072,0,
1594840106161838646,24.0,-64.0,961.0,0.25,0.0625,0.0625,25.0625,11.6875,-72.5,0.999258301630135,-0.03259247086919693,-0.020507622119944134,0.00012206917928538175,101681.75,131072,0,
1594840106184797415,25.0,-62.0,960.0,-0.0625,-0.0625,0.0625,25.0625,11.6875,-72.5,0.999258301630135,-0.03259247086919693,-0.020507622119944134,0.00012206917928538175,101681.75,131072,0,
1594840106208630690,24.0,-65.0,961.0,0.0,-0.1875,0.0,25.75,10.875,-73.25,0.999258301630135,-0.03259247086919693,-0.020507622119944134,0.00012206917928538175,101681.75,131072,0,
1594840106232670144,23.0,-63.0,961.0,-0.0625,0.125,0.0,25.75,10.875,-73.25,0.999258301630135,-0.03259247086919693,-0.020507622119944134,0.00012206917928538175,101681.75,131072,0,
1594840106257403426,24.0,-62.0,961.0,-0.125,0.125,0.0625,24.375,11.25,-72.0625,0.999258301630135,-0.03259247086919693,-0.020507622119944134,0.00012206917928538175,101681.75,131072,0,
1594840106280467246,24.0,-63.0,961.0,0.0625,0.1875,0.0625,24.375,11.25,-72.0625,0.999258301630135,-0.03259247086919693,-0.020507622119944134,0.00012206917928538175,101681.75,131072,0,
1594840106306274638,23.0,-62.0,960.0,-0.0625,0.0625,0.0625,24.375,11.25,-72.0625,0.999258301630135,-0.03259247086919693,-0.020507622119944134,0.00012206917928538175,101681.75,131072,0,
1594840106331420929,24.0,-61.0,963.0,0.1875,0.0625,0.0,25.5,10.5625,-71.6875,0.999258301630135,-0.03259247086919693,-0.020507622119944134,0.00012206917928538175,101681.75,131072,0,
1594840106358368413,23.0,-63.0,961.0,0.125,0.125,-0.0625,25.5,10.5625,-71.6875,0.999258301630135,-0.03259247086919693,-0.020507622119944134,0.00012206917928538175,101681.75, , ,
1594840106380979824,21.0,-60.0,962.0,-0.1875,0.0,0.0,25.5,10.5625,-71.6875,0.999258301630135,-0.03259247086919693,-0.020507622119944134,0.00012206917928538175,101681.75,131072,0,
1594840106404076194,24.0,-60.0,963.0,-0.0625,0.0,0.0625,25.5,10.5625,-71.6875,0.999258301630135,-0.03259247086919693,-0.020507622119944134,0.00012206917928538175,101681.75,131072,0,
1594840106427651320,22.0,-65.0,959.0,0.0,0.0,-0.0625,24.375,10.5625,-71.25,0.999258301630135,-0.03259247086919693,-0.020507622119944134,0.00012206917928538175,101681.75,131072,0,
1594840106452029481,24.0,-63.0,961.0,0.0,-0.0625,0.0,24.375,10.5625,-71.25,0.999258301630135,-0.03259247086919693,-0.020507622119944134,0.00012206917928538175,101681.75,131072,0,
1594840106475858983,22.0,-62.0,962.0,0.1875,0.125,-0.0625,25.0625,10.875,-72.75,0.999258301630135,-0.03259247086919693,-0.020507622119944134,0.00012206917928538175,101681.75,131072,0,
1594840106499254541,22.0,-64.0,961.0,-0.125,0.25,-0.0625,25.0625,10.875,-72.75,0.999258301630135,-0.03259247086919693,-0.020507622119944134,0.00012206917928538175,101681.75,131072,0,
1594840106522505890,23.0,-61.0,962.0,0.125,0.0625,0.0,25.5,11.25,-71.5625,0.999258301630135,-0.03259247086919693,-0.020507622119944134,0.00012206917928538175,101681.0,131072,0,
1594840106546777661,21.0,-63.0,961.0,0.0,0.0,-0.0625,25.5,11.25,-71.5625,0.999258301630135,-0.03259247086919693,-0.020507622119944134,0.00012206917928538175,101681.0,131072,0,
1594840106571505968,23.0,-61.0,960.0,-0.1875,0.1875,0.0,24.75,11.6875,-71.25,0.999258301630135,-0.03259247086919693,-0.020507622119944134,0.00012206917928538175,101681.0,131072,0,
1594840106594402098,22.0,-62.0,961.0,0.0625,0.1875,-0.0625,24.75,11.6875,-71.25,0.999258301630135,-0.03259247086919693,-0.020507622119944134,0.00012206917928538175,101681.0,131072,0,
1594840106617322194,24.0,-64.0,961.0,-0.125,-0.125,-0.0625,24.375,10.5625,-72.0625,0.999258301630135,-0.03259247086919693,-0.020507622119944134,0.00012206917928538175,101681.0,131072,0,
1594840106640403212,23.0,-63.0,957.0,0.0,0.125,-0.0625,24.375,10.5625,-72.0625,0.999258301630135,-0.03259247086919693,-0.020507622119944134,0.00012206917928538175,101681.0,131072,0,
1594840106663760788,24.0,-63.0,960.0,-0.125,0.0625,0.0,24.75,10.875,-72.375,0.999258301630135,-0.03259247086919693,-0.020507622119944134,0.00012206917928538175,101681.0,131072,0,
1594840106686271225,22.0,-65.0,960.0,-0.1875,0.0625,0.0,24.75,10.875,-72.375,0.999258301630135,-0.03259247086919693,-0.020507622119944134,0.00012206917928538175,101681.0,131072,0,
1594840106709504094,21.0,-64.0,959.0,-0.0625,0.0625,0.0625,24.375,10.875,-72.375,0.999258301630135,-0.03259247086919693,-0.020507622119944134,0.00012206917928538175,101681.0,131072,0,
1594840106732603230,22.0,-66.0,962.0,0.0,-0.0625,0.0,24.375,10.5625,-72.875,0.999258301630135,-0.03259247086919693,-0.020507622119944134,0.00012206917928538175,101681.0,131072,0,
1594840106756672751,22.0,-63.0,961.0,0.0,0.25,-0.0625,24.375,10.5625,-72.875,0.999258301630135,-0.03259247086919693,-0.020507622119944134,0.00012206917928538175,101681.0,131072,0,
1594840106780673423,24.0,-62.0,961.0,0.0625,0.0,0.0,25.0625,11.6875,-71.6875,0.999258301630135,-0.03259247086919693,-0.020507622119944134,0.00012206917928538175,101681.0,131072,0,
1594840106804787729,23.0,-62.0,963.0,0.0,0.125,0.0,25.0625,11.6875,-71.6875,0.999258301630135,-0.03259247086919693,-0.020507622119944134,0.00012206917928538175,101681.0,131072,0,
1594840106829403750,22.0,-64.0,962.0,0.0,0.0,-0.0625,24.75,10.875,-72.0625,0.999258301630135,-0.03259247086919693,-0.020507622119944134,0.00012206917928538175,101681.0,131072,0,
1594840106852888563,22.0,-61.0,963.0,-0.0625,0.1875,0.0,24.75,10.875,-72.0625,0.999258301630135,-0.03259247086919693,-0.020507622119944134,0.00012206917928538175,101681.0,131072,0,
1594840106876801289,22.0,-62.0,961.0,-0.0625,0.0625,0.125,24.75,10.1875,-72.0625,0.999258301630135,-0.03259247086919693,-0.020507622119944134,0.00012206917928538175,101681.0,131072,0,
1594840106904052661,21.0,-64.0,961.0,-0.125,-0.0625,-0.0625,24.75,10.1875,-72.0625,0.999258301630135,-0.03259247086919693,-0.020507622119944134,0.00012206917928538175,101681.75,131072,0,
1594840106928663448,22.0,-61.0,961.0,-0.0625,0.0625,-0.125,24.375,11.6875,-72.875,0.999258301630135,-0.03259247086919693,-0.020507622119944134,0.00012206917928538175,101681.75,131072,0,
1594840106951360141,23.0,-64.0,959.0,-0.0625,0.0,-0.0625,24.375,11.6875,-72.875,0.999258301630135,-0.03259247086919693,-0.020507622119944134,0.00012206917928538175,101681.75,131072,0,
1594840106975824961,22.0,-63.0,957.0,0.0,-0.0625,0.0,24.0,10.5625,-72.0625,0.999258301630135,-0.03259247086919693,-0.020507622119944134,0.00012206917928538175,101681.75,131072,0,
1594840107005466434,22.0,-62.0,962.0,0.125,-0.125,0.0,24.0,10.5625,-72.0625,0.999258301630135,-0.03259247086919693,-0.020507622119944134,0.00012206917928538175,101681.75,131072,0,
1594840107035606486,26.0,-61.0,961.0,0.125,0.0,-0.0625,25.0625,11.25,-71.6875,0.999258301630135,-0.03259247086919693,-0.020507622119944134,0.00012206917928538175,101681.75,131072,0,
1594840107058509946,22.0,-63.0,961.0,-0.125,-0.0625,0.0,25.0625,10.875,-72.0625,0.999258301630135,-0.03259247086919693,-0.020507622119944134,0.00012206917928538175,101681.75,131072,0,
1594840107083463830,23.0,-62.0,958.0,-0.0625,-0.0625,-0.0625,25.0625,10.875,-72.0625,0.999258301630135,-0.03259247086919693,-0.020507622119944134,0.00012206917928538175,101681.75,131072,0,
1594840107108122980,24.0,-61.0,961.0,0.125,-0.3125,0.0,24.75,10.875,-72.5,0.999258301630135,-0.03259247086919693,-0.020507622119944134,0.00012206917928538175,101681.75,131072,0,
1594840107132886281,23.0,-65.0,960.0,-0.1875,-0.0625,-0.125,24.75,10.875,-72.5,0.999258301630135,-0.03259247086919693,-0.020507622119944134,0.00012206917928538175,101681.75,131072,0,
1594840107156722124,23.0,-60.0,962.0,0.0,0.0,-0.0625,25.0625,11.25,-72.875,0.999258301630135,-0.03259247086919693,-0.020507622119944134,0.00012206917928538175,101681.75,131072,0,
1594840107180062736,22.0,-62.0,960.0,0.1875,-0.0625,0.0625,25.0625,11.25,-72.875,0.999258301630135,-0.03259247086919693,-0.020507622119944134,0.00012206917928538175,101681.75,131072,0,
1594840107203941195,23.0,-64.0,961.0,-0.0625,-0.125,0.0625,25.0625,11.25,-72.875,0.999258301630135,-0.03259247086919693,-0.020507622119944134,0.00012206917928538175,101681.75,131072,0,
1594840107227881568,24.0,-60.0,961.0,0.0625,0.125,0.0,25.0625,10.5625,-72.5,0.999258301630135,-0.03259247086919693,-0.020507622119944134,0.00012206917928538175,101681.75,131072,0,
1594840107252603899,23.0,-60.0,964.0,-0.1875,-0.25,0.0625,25.0625,10.5625,-72.5,0.999258301630135,-0.03259247086919693,-0.020507622119944134,0.00012206917928538175,101681.75,131072,0,
1594840107277366664,22.0,-64.0,962.0,-0.0625,-0.0625,-0.0625,25.0625,11.25,-72.0625,0.999258301630135,-0.03259247086919693,-0.020507622119944134,0.00012206917928538175,101676.25,131072,0,
1594840107301912359,22.0,-61.0,963.0,0.0625,-0.125,0.0,25.0625,11.25,-72.0625,0.999258301630135,-0.03259247086919693,-0.020507622119944134,0.00012206917928538175,101676.25,131072,0,
1594840107326674566,23.0,-62.0,963.0,-0.125,-0.1875,-0.125,24.375,10.875,-71.6875,0.999258301630135,-0.03259247086919693,-0.020507622119944134,0.00012206917928538175,101676.25,131072,0,
1594840107352787062,23.0,-64.0,961.0,0.0,-0.125,-0.0625,24.375,10.875,-71.6875,0.999258301630135,-0.03259247086919693,-0.020507622119944134,0.00012206917928538175,101676.25,131072,0,
1594840107377031597,22.0,-64.0,963.0,-0.125,0.125,0.0,24.75,10.875,-72.875,0.999258301630135,-0.03259247086919693,-0.020507622119944134,0.00012206917928538175,101676.25,131072,0,
1594840107400967897,23.0,-63.0,959.0,0.0,-0.0625,0.0,24.75,10.875,-72.875,0.999258301630135,-0.03259247086919693,-0.020507622119944134,0.00012206917928538175,101676.25,131072,0,
1594840107424803392,23.0,-63.0,958.0,-0.125,0.1875,-0.125,24.375,11.6875,-72.875,0.999258301630135,-0.03259247086919693,-0.020507622119944134,0.00012206917928538175,101676.25,131072,0,
1594840107449339732,21.0,-62.0,961.0,-0.1875,-0.1875,0.0,24.375,11.6875,-72.875,0.999258301630135,-0.03259247086919693,-0.020507622119944134,0.00012206917928538175,101676.25,131072,0,
1594840107476841688,22.0,-63.0,959.0,0.1875,-0.125,0.0625,24.0,10.1875,-70.875,0.999258301630135,-0.03259247086919693,-0.020507622119944134,0.00012206917928538175,101676.25,131072,0,
1594840107508955292,23.0,-65.0,959.0,0.0625,0.0,0.0625,25.0625,10.875,-72.75,0.999258301630135,-0.03259247086919693,-0.020507622119944134,0.00012206917928538175,101676.25,131072,0,
1594840107549352453,23.0,-64.0,955.0,-0.125,0.0,-0.125,25.0625,10.875,-72.75,0.999258301630135,-0.03259247086919693,-0.020507622119944134,0.00012206917928538175,101676.25,131072,0,
1594840107584681609,22.0,-66.0,961.0,0.0625,0.1875,-0.0625,24.75,10.875,-71.25,0.999258301630135,-0.03259247086919693,-0.020507622119944134,0.00012206917928538175,101676.25,131072,0,
1594840107617189514,22.0,-64.0,962.0,-0.0625,0.0625,-0.0625,25.5,10.5625,-72.0625,0.999258301630135,-0.03259247086919693,-0.020507622119944134,0.00012206917928538175,101676.25,131072,0,
1594840107646544239,25.0,-60.0,961.0,-0.25,0.125,-0.0625,25.5,10.5625,-72.0625,0.999258301630135,-0.03259247086919693,-0.020507622119944134,0.00012206917928538175,101682.75,131072,0,
